<?xml version="1.0" encoding="UTF-8"?>

<Bundle xmlns="http://hl7.org/fhir">
  <id value="fhirlabsample2"/>
  <type value="transaction"/>
  <entry>
    <fullUrl value="http://example.org/fhir/Patient/123456"/>
    <resource>
      <Patient>
        <text>
          <status value="generated"/><div xmlns="http://www.w3.org/1999/xhtml"><p><b>Generated Narrative: Patient</b></p><div style="display: inline-block; background-color: #d9e0e7; padding: 6px; margin: 4px; border: 1px solid #8da1b4; border-radius: 5px; line-height: 60%"/><p><b>identifier</b>: id: 942104 (use: USUAL)</p><p><b>name</b>: TESTFIVE L MHVSYSTEST </p><p><b>gender</b>: unknown</p></div>
        </text>
        <identifier>
          <use value="usual"/>
          <system value="http://va.gov/systems/USVHA"/>
          <value value="942104"/>
          <assigner>
            <display value="979"/>
          </assigner>
        </identifier>
        <name>
          <family value="MHVSYSTEST"/>
          <given value="TESTFIVE"/>
          <given value="L"/>
        </name>
        <gender value="unknown"/>
      </Patient>
    </resource>
    <request>
      <method value="POST"/>
      <url value="Patient"/>
    </request>
  </entry>
  <entry>
    <fullUrl value="http://example.org/fhir/Practitioner/59845-VA660"/>
    <resource>
      <Practitioner>
        <text>
          <status value="generated"/><div xmlns="http://www.w3.org/1999/xhtml"><p><b>Generated Narrative: Practitioner</b></p><div style="display: inline-block; background-color: #d9e0e7; padding: 6px; margin: 4px; border: 1px solid #8da1b4; border-radius: 5px; line-height: 60%"/><p><b>identifier</b>: id: 59845-VA660 (use: SECONDARY)</p><p><b>name</b>: LISA HALL </p></div>
        </text>
        <identifier>
          <use value="secondary"/>
          <system value="http://va.gov/systems/99VA"/>
          <value value="59845-VA660"/>
        </identifier>
        <name>
          <family value="HALL"/>
          <given value="LISA"/>
        </name>
      </Practitioner>
    </resource>
    <request>
      <method value="POST"/>
      <url value="Practitioner"/>
    </request>
  </entry>
  <entry>
    <fullUrl value="http://example.org/fhir/Organization/660"/>
    <resource>
      <Organization>
        <text>
          <status value="generated"/><div xmlns="http://www.w3.org/1999/xhtml"><p><b>Generated Narrative: Organization</b></p><div style="display: inline-block; background-color: #d9e0e7; padding: 6px; margin: 4px; border: 1px solid #8da1b4; border-radius: 5px; line-height: 60%"/><p><b>identifier</b>: id: 660 (use: USUAL)</p><p><b>active</b>: true</p><p><b>name</b>: VA SALT LAKE CITY HEALTH CARE SYSTEM (660)</p></div>
        </text>
        <identifier>
          <use value="usual"/>
          <system value="urn:oid:2.16.840.1.113883.4.349"/>
          <value value="660"/>
        </identifier>
        <active value="true"/>
        <name value="VA SALT LAKE CITY HEALTH CARE SYSTEM (660)"/>
      </Organization>
    </resource>
    <request>
      <method value="POST"/>
      <url value="Organization"/>
    </request>
  </entry>
  <entry>
    <fullUrl value="urn:uuid:337307e4-3ea0-4435-942d-2c9f67acd814"/>
    <resource>
      <DiagnosticReport>
        <meta>
          <lastUpdated value="2019-03-15T17:00:44-05:00"/>
          <profile value="https://johnmoehrke.github.io/MHV-PHR/StructureDefinition/VA.MHV.PHR.chReport"/>
        </meta>
        <text>
          <status value="generated"/><div xmlns="http://www.w3.org/1999/xhtml"><p><b>Generated Narrative: DiagnosticReport</b></p><div style="display: inline-block; background-color: #d9e0e7; padding: 6px; margin: 4px; border: 1px solid #8da1b4; border-radius: 5px; line-height: 60%"><p style="margin-bottom: 0px">Resource DiagnosticReport Updated &quot;2019-03-15 17:00:44-0500&quot; </p><p style="margin-bottom: 0px">Profile: <a href="StructureDefinition-VA.MHV.PHR.chReport.html">VA MHV PHR HDR Chem-Hem Report</a></p></div><p><b>identifier</b>: id: 1190740002 (use: USUAL)</p><p><b>status</b>: final</p><p><b>category</b>: Laboratory <span style="background: LightGoldenRodYellow; margin: 4px; border: 1px solid khaki"> (<a href="http://terminology.hl7.org/3.1.0/CodeSystem-v2-0074.html">diagnosticServiceSectionId</a>#LAB)</span>, CHLORIDE <span style="background: LightGoldenRodYellow; margin: 4px; border: 1px solid khaki"> (<a href="https://loinc.org/">LOINC</a>#2078-4)</span>, POTASSIUM <span style="background: LightGoldenRodYellow; margin: 4px; border: 1px solid khaki"> (<a href="https://loinc.org/">LOINC</a>#2823-3)</span></p><p><b>code</b>: CH <span style="background: LightGoldenRodYellow; margin: 4px; border: 1px solid khaki"> ()</span></p><p><b>subject</b>: <a href="#http__example.org_fhir_Patient_123456">See above (http://example.org/fhir/Patient/123456)</a></p><p><b>effective</b>: 2019-03-15 17:00:42-0500</p><p><b>issued</b>: Mar 15, 2019, 5:00:42 PM</p><p><b>performer</b>: </p><ul><li><a href="#http__example.org_fhir_Practitioner_59845-VA660">See above (http://example.org/fhir/Practitioner/59845-VA660)</a></li><li><a href="#http__example.org_fhir_Organization_660">See above (http://example.org/fhir/Organization/660)</a></li></ul><p><b>specimen</b>: <a name="0"> </a></p><blockquote><p/><p><a name="0"> </a></p><p><b>status</b>: available</p><p><b>type</b>: URINE <span style="background: LightGoldenRodYellow; margin: 4px; border: 1px solid khaki"> (<a href="https://browser.ihtsdotools.org/">SNOMED CT</a>#78014005 &quot;Urine (substance)&quot;; HL70070[5.2]#UR &quot;Urine&quot;)</span></p><h3>Collections</h3><table class="grid"><tr><td>-</td><td><b>Collected[x]</b></td></tr><tr><td>*</td><td>2019-03-15 16:59:44-0400</td></tr></table></blockquote><p><b>result</b>: </p><ul><li><a name="1.0"> </a></li><li><a name="2.0"> </a></li></ul><blockquote><p/><p><a name="1.0"> </a></p><p><b>status</b>: final</p><p><b>category</b>: Laboratory <span style="background: LightGoldenRodYellow; margin: 4px; border: 1px solid khaki"> (<a href="http://terminology.hl7.org/3.1.0/CodeSystem-observation-category.html">Observation Category Codes</a>#laboratory)</span>, Chloride <span style="background: LightGoldenRodYellow; margin: 4px; border: 1px solid khaki"> (99VA64#82435.0000)</span>, CHLORIDE <span style="background: LightGoldenRodYellow; margin: 4px; border: 1px solid khaki"> (99VA60#178)</span></p><p><b>code</b>: CHLORIDE:SCNC:PT:URINE:QN: <span style="background: LightGoldenRodYellow; margin: 4px; border: 1px solid khaki"> (<a href="https://loinc.org/">LOINC[2.68]</a>#2078-4 &quot;CHLORIDE&quot;)</span></p><p><b>subject</b>: <a href="#http__example.org_fhir_Patient_123456">See above (http://example.org/fhir/Patient/123456)</a></p><p><b>performer</b>: <a href="#http__example.org_fhir_Organization_660">See above (http://example.org/fhir/Organization/660)</a></p><p><b>value</b>: 99 mmol/L<span style="background: LightGoldenRodYellow"> (Details: UCUM code mmol/L = 'mmol/L')</span></p></blockquote><blockquote><p/><p><a name="2.0"> </a></p><p><b>status</b>: final</p><p><b>category</b>: Laboratory <span style="background: LightGoldenRodYellow; margin: 4px; border: 1px solid khaki"> (<a href="http://terminology.hl7.org/3.1.0/CodeSystem-observation-category.html">Observation Category Codes</a>#laboratory)</span>, Potassium <span style="background: LightGoldenRodYellow; margin: 4px; border: 1px solid khaki"> (99VA64#84140.0000)</span>, POTASSIUM <span style="background: LightGoldenRodYellow; margin: 4px; border: 1px solid khaki"> (99VA60#177)</span></p><p><b>code</b>: POTASSIUM:SCNC:PT:SER/PLAS:QN: <span style="background: LightGoldenRodYellow; margin: 4px; border: 1px solid khaki"> (<a href="https://loinc.org/">LOINC[2.64]</a>#2823-3 &quot;POTASSIUM&quot;)</span></p><p><b>subject</b>: <a href="#http__example.org_fhir_Patient_123456">See above (http://example.org/fhir/Patient/123456)</a></p><p><b>performer</b>: <a href="#http__example.org_fhir_Organization_660">See above (http://example.org/fhir/Organization/660)</a></p><p><b>value</b>: 4.1 mmol/L<span style="background: LightGoldenRodYellow"> (Details: UCUM code mmol/L = 'mmol/L')</span></p><h3>ReferenceRanges</h3><table class="grid"><tr><td>-</td><td><b>Text</b></td></tr><tr><td>*</td><td>3.8-5.2</td></tr></table></blockquote><p><b>conclusion</b>: Test 3/15/19</p><hr/><blockquote><p><b>Generated Narrative: Specimen #0</b><a name="0"> </a></p><p><b>status</b>: available</p><p><b>type</b>: URINE <span style="background: LightGoldenRodYellow; margin: 4px; border: 1px solid khaki"> (<a href="https://browser.ihtsdotools.org/">SNOMED CT</a>#78014005 &quot;Urine (substance)&quot;; HL70070[5.2]#UR &quot;Urine&quot;)</span></p><h3>Collections</h3><table class="grid"><tr><td>-</td><td><b>Collected[x]</b></td></tr><tr><td>*</td><td>2019-03-15 16:59:44-0400</td></tr></table></blockquote><hr/><blockquote><p><b>Generated Narrative: Observation #1.0</b><a name="1.0"> </a></p><p><b>status</b>: final</p><p><b>category</b>: Laboratory <span style="background: LightGoldenRodYellow; margin: 4px; border: 1px solid khaki"> (<a href="http://terminology.hl7.org/3.1.0/CodeSystem-observation-category.html">Observation Category Codes</a>#laboratory)</span>, Chloride <span style="background: LightGoldenRodYellow; margin: 4px; border: 1px solid khaki"> (99VA64#82435.0000)</span>, CHLORIDE <span style="background: LightGoldenRodYellow; margin: 4px; border: 1px solid khaki"> (99VA60#178)</span></p><p><b>code</b>: CHLORIDE:SCNC:PT:URINE:QN: <span style="background: LightGoldenRodYellow; margin: 4px; border: 1px solid khaki"> (<a href="https://loinc.org/">LOINC[2.68]</a>#2078-4 &quot;CHLORIDE&quot;)</span></p><p><b>subject</b>: <a href="Bundle-fhirlabsample2.html#http-//example.org/fhir/Patient/123456">http://example.org/fhir/Patient/123456</a></p><p><b>performer</b>: <a href="Bundle-fhirlabsample2.html#http-//example.org/fhir/Organization/660">http://example.org/fhir/Organization/660</a></p><p><b>value</b>: 99 mmol/L<span style="background: LightGoldenRodYellow"> (Details: UCUM code mmol/L = 'mmol/L')</span></p></blockquote><hr/><blockquote><p><b>Generated Narrative: Observation #2.0</b><a name="2.0"> </a></p><p><b>status</b>: final</p><p><b>category</b>: Laboratory <span style="background: LightGoldenRodYellow; margin: 4px; border: 1px solid khaki"> (<a href="http://terminology.hl7.org/3.1.0/CodeSystem-observation-category.html">Observation Category Codes</a>#laboratory)</span>, Potassium <span style="background: LightGoldenRodYellow; margin: 4px; border: 1px solid khaki"> (99VA64#84140.0000)</span>, POTASSIUM <span style="background: LightGoldenRodYellow; margin: 4px; border: 1px solid khaki"> (99VA60#177)</span></p><p><b>code</b>: POTASSIUM:SCNC:PT:SER/PLAS:QN: <span style="background: LightGoldenRodYellow; margin: 4px; border: 1px solid khaki"> (<a href="https://loinc.org/">LOINC[2.64]</a>#2823-3 &quot;POTASSIUM&quot;)</span></p><p><b>subject</b>: <a href="Bundle-fhirlabsample2.html#http-//example.org/fhir/Patient/123456">http://example.org/fhir/Patient/123456</a></p><p><b>performer</b>: <a href="Bundle-fhirlabsample2.html#http-//example.org/fhir/Organization/660">http://example.org/fhir/Organization/660</a></p><p><b>value</b>: 4.1 mmol/L<span style="background: LightGoldenRodYellow"> (Details: UCUM code mmol/L = 'mmol/L')</span></p><h3>ReferenceRanges</h3><table class="grid"><tr><td>-</td><td><b>Text</b></td></tr><tr><td>*</td><td>3.8-5.2</td></tr></table></blockquote></div>
        </text>
        <contained>
          <Specimen>
            <id value="0"/>
            <status value="available"/>
            <type>
              <coding>
                <system value="http://snomed.info/sct"/>
                <code value="78014005"/>
                <display value="Urine (substance)"/>
              </coding>
              <coding>
                <system value="http://va.gov/systems/HL70070"/>
                <version value="5.2"/>
                <code value="UR"/>
                <display value="Urine"/>
              </coding>
              <text value="URINE"/>
            </type>
            <collection>
              <collectedDateTime value="2019-03-15T16:59:44-04:00"/>
            </collection>
          </Specimen>
        </contained>
        <contained>
          <Observation>
            <id value="1.0"/>
            <status value="final"/>
            <category>
              <coding>
                <system value="http://terminology.hl7.org/CodeSystem/observation-category"/>
                <code value="laboratory"/>
              </coding>
            </category>
            <category>
              <coding>
                <system value="http://va.gov/systems/99VA64"/>
                <code value="82435.0000"/>
                <display value="Chloride"/>
              </coding>
            </category>
            <category>
              <coding>
                <system value="http://va.gov/systems/99VA60"/>
                <code value="178"/>
                <display value="CHLORIDE"/>
              </coding>
            </category>
            <code>
              <coding>
                <system value="http://loinc.org"/>
                <version value="2.68"/>
                <code value="2078-4"/>
                <display value="CHLORIDE"/>
              </coding>
              <text value="CHLORIDE:SCNC:PT:URINE:QN:"/>
            </code>
            <subject>
              <reference value="http://example.org/fhir/Patient/123456"/>
            </subject>
            <performer>
              <reference value="http://example.org/fhir/Organization/660"/>
            </performer>
            <valueQuantity>
              <value value="99"/>
              <unit value="mmol/L"/>
              <system value="http://unitsofmeasure.org"/>
              <code value="mmol/L"/>
            </valueQuantity>
          </Observation>
        </contained>
        <contained>
          <Observation>
            <id value="2.0"/>
            <status value="final"/>
            <category>
              <coding>
                <system value="http://terminology.hl7.org/CodeSystem/observation-category"/>
                <code value="laboratory"/>
              </coding>
            </category>
            <category>
              <coding>
                <system value="http://va.gov/systems/99VA64"/>
                <code value="84140.0000"/>
                <display value="Potassium"/>
              </coding>
            </category>
            <category>
              <coding>
                <system value="http://va.gov/systems/99VA60"/>
                <code value="177"/>
                <display value="POTASSIUM"/>
              </coding>
            </category>
            <code>
              <coding>
                <system value="http://loinc.org"/>
                <version value="2.64"/>
                <code value="2823-3"/>
                <display value="POTASSIUM"/>
              </coding>
              <text value="POTASSIUM:SCNC:PT:SER/PLAS:QN:"/>
            </code>
            <subject>
              <reference value="http://example.org/fhir/Patient/123456"/>
            </subject>
            <performer>
              <reference value="http://example.org/fhir/Organization/660"/>
            </performer>
            <valueQuantity>
              <value value="4.1"/>
              <unit value="mmol/L"/>
              <system value="http://unitsofmeasure.org"/>
              <code value="mmol/L"/>
            </valueQuantity>
            <referenceRange>
              <text value="3.8-5.2"/>
            </referenceRange>
          </Observation>
        </contained>
        <identifier>
          <use value="usual"/>
          <system value="urn:oid:2.16.840.1.113883.4.349.4.989"/>
          <value value="1190740002"/>
        </identifier>
        <status value="final"/>
        <category>
          <coding>
            <system value="http://terminology.hl7.org/CodeSystem/v2-0074"/>
            <code value="LAB"/>
          </coding>
        </category>
        <category>
          <coding>
            <system value="http://loinc.org"/>
            <code value="2078-4"/>
            <display value="CHLORIDE"/>
          </coding>
        </category>
        <category>
          <coding>
            <system value="http://loinc.org"/>
            <code value="2823-3"/>
            <display value="POTASSIUM"/>
          </coding>
        </category>
        <code>
          <text value="CH"/>
        </code>
        <subject>
          <reference value="http://example.org/fhir/Patient/123456"/>
        </subject>
        <effectiveDateTime value="2019-03-15T17:00:42-05:00"/>
        <issued value="2019-03-15T17:00:42-05:00"/>
        <performer>
          <reference value="http://example.org/fhir/Practitioner/59845-VA660"/>
        </performer>
        <performer>
          <reference value="http://example.org/fhir/Organization/660"/>
        </performer>
        <specimen>
          <reference value="#0"/>
        </specimen>
        <result>
          <reference value="#1.0"/>
        </result>
        <result>
          <reference value="#2.0"/>
        </result>
        <conclusion value="Test 3/15/19"/>
      </DiagnosticReport>
    </resource>
    <request>
      <method value="POST"/>
      <url value="Observation"/>
    </request>
  </entry>
</Bundle>