{
  "resourceType" : "Bundle",
  "id" : "8647883f-2316-48a1-9437-fdbe628f24ec",
  "meta" : {
    "lastUpdated" : "2023-11-14T12:57:59.958-05:00"
  },
  "type" : "searchset",
  "total" : 9,
  "link" : [{
    "relation" : "self",
    "url" : "http://localhost:8081/fhir/Immunization?patient=27659"
  }],
  "entry" : [{
    "fullUrl" : "http://localhost:8081/fhir/Immunization/27654",
    "resource" : {
      "resourceType" : "Immunization",
      "id" : "27654",
      "meta" : {
        "versionId" : "29",
        "lastUpdated" : "2023-11-14T12:55:38.977-05:00",
        "source" : "#qRLn7DXPxLrg5fzq",
        "profile" : ["https://department-of-veterans-affairs.github.io/mhv-fhir-phr-mapping/StructureDefinition/VA.MHV.PHR.immunization"]
      },
      "text" : {
        "status" : "generated",
        "div" : "<div xmlns=\"http://www.w3.org/1999/xhtml\"><p><b>Generated Narrative: Immunization</b><a name=\"27654\"> </a></p><div style=\"display: inline-block; background-color: #d9e0e7; padding: 6px; margin: 4px; border: 1px solid #8da1b4; border-radius: 5px; line-height: 60%\"><p style=\"margin-bottom: 0px\">Resource Immunization &quot;27654&quot; Version &quot;29&quot; Updated &quot;2023-11-14 12:55:38-0500&quot; </p><p style=\"margin-bottom: 0px\">Information Source: #qRLn7DXPxLrg5fzq!</p><p style=\"margin-bottom: 0px\">Profile: <a href=\"StructureDefinition-VA.MHV.PHR.immunization.html\">VA MHV PHR Immunization</a></p></div><p><b>identifier</b>: id:\u00a0ImmunizationTO.125285\u00a0(use:\u00a0USUAL)</p><p><b>status</b>: completed</p><p><b>vaccineCode</b>: YELLOW FEVER <span style=\"background: LightGoldenRodYellow; margin: 4px; border: 1px solid khaki\"> (<a href=\"http://terminology.hl7.org/5.0.0/CodeSystem-CPT.html\">Current Procedural Terminology (CPT®)</a>#90717 &quot;YELLOW FEVER VACCINE SUBQ&quot;)</span></p><p><b>patient</b>: <a href=\"Patient-27659.html\">Patient/27659</a> &quot; TEST&quot;</p><p><b>occurrence</b>: 2023-10-13 10:49:00-0400</p><p><b>primarySource</b>: Absent because : <code>unknown</code></p><p><b>location</b>: <a name=\"Location-0\"> </a></p><blockquote><p/><p><a name=\"Location-0\"> </a></p><p><b>name</b>: ADULT DAY HEALTH CARE</p></blockquote><blockquote><p><b>performer</b></p><p><b>actor</b>: <a name=\"Organization-0\"> </a></p><blockquote><p/><p><a name=\"Organization-0\"> </a></p><p><b>identifier</b>: L:\u00a0984\u00a0(use:\u00a0USUAL)</p><p><b>active</b>: true</p><p><b>name</b>: DAYTSHR TEST LAB</p></blockquote></blockquote><blockquote><p><b>performer</b></p><p><b>function</b>: Administering Provider <span style=\"background: LightGoldenRodYellow; margin: 4px; border: 1px solid khaki\"> (<a href=\"http://terminology.hl7.org/5.0.0/CodeSystem-v2-0443.html\">providerRole</a>#AP)</span></p><p><b>actor</b>: <a name=\"Provider-0\"> </a></p><blockquote><p/><p><a name=\"Provider-0\"> </a></p><p><b>identifier</b>: id:\u00a00\u00a0(use:\u00a0USUAL)</p><p><b>name</b>: KHAN,MUAZZAM</p></blockquote></blockquote><p><b>note</b>: Yellow </p><h3>ProtocolApplieds</h3><table class=\"grid\"><tr><td style=\"display: none\">-</td><td><b>Series</b></td><td><b>DoseNumber[x]</b></td></tr><tr><td style=\"display: none\">*</td><td>COMPLETE</td><td>C</td></tr></table><hr/><blockquote><p><b>Generated Narrative: Location #Location-0</b><a name=\"Location-0\"> </a></p><p><b>name</b>: ADULT DAY HEALTH CARE</p></blockquote><hr/><blockquote><p><b>Generated Narrative: Organization #Organization-0</b><a name=\"Organization-0\"> </a></p><p><b>identifier</b>: L:\u00a0984\u00a0(use:\u00a0USUAL)</p><p><b>active</b>: true</p><p><b>name</b>: DAYTSHR TEST LAB</p></blockquote><hr/><blockquote><p><b>Generated Narrative: Practitioner #Provider-0</b><a name=\"Provider-0\"> </a></p><p><b>identifier</b>: id:\u00a00\u00a0(use:\u00a0USUAL)</p><p><b>name</b>: KHAN,MUAZZAM</p></blockquote></div>"
      },
      "contained" : [{
        "resourceType" : "Location",
        "id" : "Location-0",
        "name" : "ADULT DAY HEALTH CARE"
      },
      {
        "resourceType" : "Organization",
        "id" : "Organization-0",
        "meta" : {
          "profile" : ["https://department-of-veterans-affairs.github.io/mhv-fhir-phr-mapping/StructureDefinition/VA.MHV.PHR.organization"]
        },
        "identifier" : [{
          "use" : "usual",
          "type" : {
            "text" : "L"
          },
          "system" : "urn:oid:2.16.840.1.113883.4.349",
          "value" : "984"
        }],
        "active" : true,
        "name" : "DAYTSHR TEST LAB"
      },
      {
        "resourceType" : "Practitioner",
        "id" : "Provider-0",
        "identifier" : [{
          "use" : "usual",
          "system" : "urn:oid:2.16.840.1.113883.4.349",
          "value" : "0"
        }],
        "name" : [{
          "text" : "KHAN,MUAZZAM"
        }]
      }],
      "identifier" : [{
        "use" : "usual",
        "system" : "urn:oid:2.16.840.1.113883.4.349.4.984",
        "value" : "ImmunizationTO.125285"
      }],
      "status" : "completed",
      "vaccineCode" : {
        "coding" : [{
          "system" : "http://www.ama-assn.org/go/cpt",
          "code" : "90717",
          "display" : "YELLOW FEVER VACCINE SUBQ"
        }],
        "text" : "YELLOW FEVER"
      },
      "patient" : {
        "reference" : "Patient/27659"
      },
      "occurrenceDateTime" : "2023-10-13T10:49:00-04:00",
      "_primarySource" : {
        "extension" : [{
          "url" : "http://hl7.org/fhir/StructureDefinition/data-absent-reason",
          "valueCode" : "unknown"
        }]
      },
      "location" : {
        "reference" : "#Location-0"
      },
      "performer" : [{
        "actor" : {
          "reference" : "#Organization-0"
        }
      },
      {
        "function" : {
          "coding" : [{
            "system" : "http://terminology.hl7.org/CodeSystem/v2-0443",
            "code" : "AP"
          }]
        },
        "actor" : {
          "reference" : "#Provider-0"
        }
      }],
      "note" : [{
        "text" : "Yellow "
      }],
      "protocolApplied" : [{
        "series" : "COMPLETE",
        "doseNumberString" : "C"
      }]
    },
    "search" : {
      "mode" : "match"
    }
  },
  {
    "fullUrl" : "http://localhost:8081/fhir/Immunization/27657",
    "resource" : {
      "resourceType" : "Immunization",
      "id" : "27657",
      "meta" : {
        "versionId" : "29",
        "lastUpdated" : "2023-11-14T12:55:38.977-05:00",
        "source" : "#qRLn7DXPxLrg5fzq",
        "profile" : ["https://department-of-veterans-affairs.github.io/mhv-fhir-phr-mapping/StructureDefinition/VA.MHV.PHR.immunization"]
      },
      "text" : {
        "status" : "generated",
        "div" : "<div xmlns=\"http://www.w3.org/1999/xhtml\"><p><b>Generated Narrative: Immunization</b><a name=\"27657\"> </a></p><div style=\"display: inline-block; background-color: #d9e0e7; padding: 6px; margin: 4px; border: 1px solid #8da1b4; border-radius: 5px; line-height: 60%\"><p style=\"margin-bottom: 0px\">Resource Immunization &quot;27657&quot; Version &quot;29&quot; Updated &quot;2023-11-14 12:55:38-0500&quot; </p><p style=\"margin-bottom: 0px\">Information Source: #qRLn7DXPxLrg5fzq!</p><p style=\"margin-bottom: 0px\">Profile: <a href=\"StructureDefinition-VA.MHV.PHR.immunization.html\">VA MHV PHR Immunization</a></p></div><p><b>identifier</b>: id:\u00a0ImmunizationTO.124696\u00a0(use:\u00a0USUAL)</p><p><b>status</b>: completed</p><p><b>vaccineCode</b>: MMR <span style=\"background: LightGoldenRodYellow; margin: 4px; border: 1px solid khaki\"> (<a href=\"http://terminology.hl7.org/5.0.0/CodeSystem-CPT.html\">Current Procedural Terminology (CPT®)</a>#90707 &quot;MMR VACCINE SC&quot;)</span></p><p><b>patient</b>: <a href=\"Patient-27659.html\">Patient/27659</a> &quot; TEST&quot;</p><p><b>occurrence</b>: 2022-08-18 16:29:23-0400</p><p><b>primarySource</b>: Absent because : <code>unknown</code></p><p><b>location</b>: <a name=\"Location-0\"> </a></p><blockquote><p/><p><a name=\"Location-0\"> </a></p><p><b>name</b>: ADMISSIONS (LOC)</p></blockquote><h3>Performers</h3><table class=\"grid\"><tr><td style=\"display: none\">-</td><td><b>Actor</b></td></tr><tr><td style=\"display: none\">*</td><td><a name=\"Organization-0\"> </a><blockquote><p/><p><a name=\"Organization-0\"> </a></p><p><b>identifier</b>: L:\u00a0552\u00a0(use:\u00a0USUAL)</p><p><b>active</b>: true</p><p><b>name</b>: DAYTON</p></blockquote></td></tr></table><hr/><blockquote><p><b>Generated Narrative: Location #Location-0</b><a name=\"Location-0\"> </a></p><p><b>name</b>: ADMISSIONS (LOC)</p></blockquote><hr/><blockquote><p><b>Generated Narrative: Organization #Organization-0</b><a name=\"Organization-0\"> </a></p><p><b>identifier</b>: L:\u00a0552\u00a0(use:\u00a0USUAL)</p><p><b>active</b>: true</p><p><b>name</b>: DAYTON</p></blockquote></div>"
      },
      "contained" : [{
        "resourceType" : "Location",
        "id" : "Location-0",
        "name" : "ADMISSIONS (LOC)"
      },
      {
        "resourceType" : "Organization",
        "id" : "Organization-0",
        "meta" : {
          "profile" : ["https://department-of-veterans-affairs.github.io/mhv-fhir-phr-mapping/StructureDefinition/VA.MHV.PHR.organization"]
        },
        "identifier" : [{
          "use" : "usual",
          "type" : {
            "text" : "L"
          },
          "system" : "urn:oid:2.16.840.1.113883.4.349",
          "value" : "552"
        }],
        "active" : true,
        "name" : "DAYTON"
      }],
      "identifier" : [{
        "use" : "usual",
        "system" : "urn:oid:2.16.840.1.113883.4.349.4.984",
        "value" : "ImmunizationTO.124696"
      }],
      "status" : "completed",
      "vaccineCode" : {
        "coding" : [{
          "system" : "http://www.ama-assn.org/go/cpt",
          "code" : "90707",
          "display" : "MMR VACCINE SC"
        }],
        "text" : "MMR"
      },
      "patient" : {
        "reference" : "Patient/27659"
      },
      "occurrenceDateTime" : "2022-08-18T16:29:23-04:00",
      "_primarySource" : {
        "extension" : [{
          "url" : "http://hl7.org/fhir/StructureDefinition/data-absent-reason",
          "valueCode" : "unknown"
        }]
      },
      "location" : {
        "reference" : "#Location-0"
      },
      "performer" : [{
        "actor" : {
          "reference" : "#Organization-0"
        }
      }]
    },
    "search" : {
      "mode" : "match"
    }
  },
  {
    "fullUrl" : "http://localhost:8081/fhir/Immunization/27656",
    "resource" : {
      "resourceType" : "Immunization",
      "id" : "27656",
      "meta" : {
        "versionId" : "29",
        "lastUpdated" : "2023-11-14T12:55:38.977-05:00",
        "source" : "#qRLn7DXPxLrg5fzq",
        "profile" : ["https://department-of-veterans-affairs.github.io/mhv-fhir-phr-mapping/StructureDefinition/VA.MHV.PHR.immunization"]
      },
      "text" : {
        "status" : "generated",
        "div" : "<div xmlns=\"http://www.w3.org/1999/xhtml\"><p><b>Generated Narrative: Immunization</b><a name=\"27656\"> </a></p><div style=\"display: inline-block; background-color: #d9e0e7; padding: 6px; margin: 4px; border: 1px solid #8da1b4; border-radius: 5px; line-height: 60%\"><p style=\"margin-bottom: 0px\">Resource Immunization &quot;27656&quot; Version &quot;29&quot; Updated &quot;2023-11-14 12:55:38-0500&quot; </p><p style=\"margin-bottom: 0px\">Information Source: #qRLn7DXPxLrg5fzq!</p><p style=\"margin-bottom: 0px\">Profile: <a href=\"StructureDefinition-VA.MHV.PHR.immunization.html\">VA MHV PHR Immunization</a></p></div><p><b>identifier</b>: id:\u00a0ImmunizationTO.124695\u00a0(use:\u00a0USUAL)</p><p><b>status</b>: completed</p><p><b>vaccineCode</b>: DENGUE FEVER TETRAVALENT <span style=\"background: LightGoldenRodYellow; margin: 4px; border: 1px solid khaki\"> ()</span></p><p><b>patient</b>: <a href=\"Patient-27659.html\">Patient/27659</a> &quot; TEST&quot;</p><p><b>occurrence</b>: 2022-08-18 16:29:23-0400</p><p><b>primarySource</b>: Absent because : <code>unknown</code></p><p><b>location</b>: <a name=\"Location-0\"> </a></p><blockquote><p/><p><a name=\"Location-0\"> </a></p><p><b>name</b>: ADMISSIONS (LOC)</p></blockquote><h3>Performers</h3><table class=\"grid\"><tr><td style=\"display: none\">-</td><td><b>Actor</b></td></tr><tr><td style=\"display: none\">*</td><td><a name=\"Organization-0\"> </a><blockquote><p/><p><a name=\"Organization-0\"> </a></p><p><b>identifier</b>: L:\u00a0552\u00a0(use:\u00a0USUAL)</p><p><b>active</b>: true</p><p><b>name</b>: DAYTON</p></blockquote></td></tr></table><hr/><blockquote><p><b>Generated Narrative: Location #Location-0</b><a name=\"Location-0\"> </a></p><p><b>name</b>: ADMISSIONS (LOC)</p></blockquote><hr/><blockquote><p><b>Generated Narrative: Organization #Organization-0</b><a name=\"Organization-0\"> </a></p><p><b>identifier</b>: L:\u00a0552\u00a0(use:\u00a0USUAL)</p><p><b>active</b>: true</p><p><b>name</b>: DAYTON</p></blockquote></div>"
      },
      "contained" : [{
        "resourceType" : "Location",
        "id" : "Location-0",
        "name" : "ADMISSIONS (LOC)"
      },
      {
        "resourceType" : "Organization",
        "id" : "Organization-0",
        "meta" : {
          "profile" : ["https://department-of-veterans-affairs.github.io/mhv-fhir-phr-mapping/StructureDefinition/VA.MHV.PHR.organization"]
        },
        "identifier" : [{
          "use" : "usual",
          "type" : {
            "text" : "L"
          },
          "system" : "urn:oid:2.16.840.1.113883.4.349",
          "value" : "552"
        }],
        "active" : true,
        "name" : "DAYTON"
      }],
      "identifier" : [{
        "use" : "usual",
        "system" : "urn:oid:2.16.840.1.113883.4.349.4.984",
        "value" : "ImmunizationTO.124695"
      }],
      "status" : "completed",
      "vaccineCode" : {
        "text" : "DENGUE FEVER TETRAVALENT"
      },
      "patient" : {
        "reference" : "Patient/27659"
      },
      "occurrenceDateTime" : "2022-08-18T16:29:23-04:00",
      "_primarySource" : {
        "extension" : [{
          "url" : "http://hl7.org/fhir/StructureDefinition/data-absent-reason",
          "valueCode" : "unknown"
        }]
      },
      "location" : {
        "reference" : "#Location-0"
      },
      "performer" : [{
        "actor" : {
          "reference" : "#Organization-0"
        }
      }]
    },
    "search" : {
      "mode" : "match"
    }
  },
  {
    "fullUrl" : "http://localhost:8081/fhir/Immunization/27658",
    "resource" : {
      "resourceType" : "Immunization",
      "id" : "27658",
      "meta" : {
        "versionId" : "29",
        "lastUpdated" : "2023-11-14T12:55:38.977-05:00",
        "source" : "#qRLn7DXPxLrg5fzq",
        "profile" : ["https://department-of-veterans-affairs.github.io/mhv-fhir-phr-mapping/StructureDefinition/VA.MHV.PHR.immunization"]
      },
      "text" : {
        "status" : "generated",
        "div" : "<div xmlns=\"http://www.w3.org/1999/xhtml\"><p><b>Generated Narrative: Immunization</b><a name=\"27658\"> </a></p><div style=\"display: inline-block; background-color: #d9e0e7; padding: 6px; margin: 4px; border: 1px solid #8da1b4; border-radius: 5px; line-height: 60%\"><p style=\"margin-bottom: 0px\">Resource Immunization &quot;27658&quot; Version &quot;29&quot; Updated &quot;2023-11-14 12:55:38-0500&quot; </p><p style=\"margin-bottom: 0px\">Information Source: #qRLn7DXPxLrg5fzq!</p><p style=\"margin-bottom: 0px\">Profile: <a href=\"StructureDefinition-VA.MHV.PHR.immunization.html\">VA MHV PHR Immunization</a></p></div><p><b>identifier</b>: id:\u00a0ImmunizationTO.124697\u00a0(use:\u00a0USUAL)</p><p><b>status</b>: completed</p><p><b>vaccineCode</b>: HEP B, ADULT <span style=\"background: LightGoldenRodYellow; margin: 4px; border: 1px solid khaki\"> ()</span></p><p><b>patient</b>: <a href=\"Patient-27659.html\">Patient/27659</a> &quot; TEST&quot;</p><p><b>occurrence</b>: 2022-08-18 16:29:23-0400</p><p><b>primarySource</b>: Absent because : <code>unknown</code></p><p><b>location</b>: <a name=\"Location-0\"> </a></p><blockquote><p/><p><a name=\"Location-0\"> </a></p><p><b>name</b>: ADMISSIONS (LOC)</p></blockquote><h3>Performers</h3><table class=\"grid\"><tr><td style=\"display: none\">-</td><td><b>Actor</b></td></tr><tr><td style=\"display: none\">*</td><td><a name=\"Organization-0\"> </a><blockquote><p/><p><a name=\"Organization-0\"> </a></p><p><b>identifier</b>: L:\u00a0552\u00a0(use:\u00a0USUAL)</p><p><b>active</b>: true</p><p><b>name</b>: DAYTON</p></blockquote></td></tr></table><hr/><blockquote><p><b>Generated Narrative: Location #Location-0</b><a name=\"Location-0\"> </a></p><p><b>name</b>: ADMISSIONS (LOC)</p></blockquote><hr/><blockquote><p><b>Generated Narrative: Organization #Organization-0</b><a name=\"Organization-0\"> </a></p><p><b>identifier</b>: L:\u00a0552\u00a0(use:\u00a0USUAL)</p><p><b>active</b>: true</p><p><b>name</b>: DAYTON</p></blockquote></div>"
      },
      "contained" : [{
        "resourceType" : "Location",
        "id" : "Location-0",
        "name" : "ADMISSIONS (LOC)"
      },
      {
        "resourceType" : "Organization",
        "id" : "Organization-0",
        "meta" : {
          "profile" : ["https://department-of-veterans-affairs.github.io/mhv-fhir-phr-mapping/StructureDefinition/VA.MHV.PHR.organization"]
        },
        "identifier" : [{
          "use" : "usual",
          "type" : {
            "text" : "L"
          },
          "system" : "urn:oid:2.16.840.1.113883.4.349",
          "value" : "552"
        }],
        "active" : true,
        "name" : "DAYTON"
      }],
      "identifier" : [{
        "use" : "usual",
        "system" : "urn:oid:2.16.840.1.113883.4.349.4.984",
        "value" : "ImmunizationTO.124697"
      }],
      "status" : "completed",
      "vaccineCode" : {
        "text" : "HEP B, ADULT"
      },
      "patient" : {
        "reference" : "Patient/27659"
      },
      "occurrenceDateTime" : "2022-08-18T16:29:23-04:00",
      "_primarySource" : {
        "extension" : [{
          "url" : "http://hl7.org/fhir/StructureDefinition/data-absent-reason",
          "valueCode" : "unknown"
        }]
      },
      "location" : {
        "reference" : "#Location-0"
      },
      "performer" : [{
        "actor" : {
          "reference" : "#Organization-0"
        }
      }]
    },
    "search" : {
      "mode" : "match"
    }
  },
  {
    "fullUrl" : "http://localhost:8081/fhir/Immunization/27655",
    "resource" : {
      "resourceType" : "Immunization",
      "id" : "27655",
      "meta" : {
        "versionId" : "29",
        "lastUpdated" : "2023-11-14T12:55:38.977-05:00",
        "source" : "#qRLn7DXPxLrg5fzq",
        "profile" : ["https://department-of-veterans-affairs.github.io/mhv-fhir-phr-mapping/StructureDefinition/VA.MHV.PHR.immunization"]
      },
      "text" : {
        "status" : "generated",
        "div" : "<div xmlns=\"http://www.w3.org/1999/xhtml\"><p><b>Generated Narrative: Immunization</b><a name=\"27655\"> </a></p><div style=\"display: inline-block; background-color: #d9e0e7; padding: 6px; margin: 4px; border: 1px solid #8da1b4; border-radius: 5px; line-height: 60%\"><p style=\"margin-bottom: 0px\">Resource Immunization &quot;27655&quot; Version &quot;29&quot; Updated &quot;2023-11-14 12:55:38-0500&quot; </p><p style=\"margin-bottom: 0px\">Information Source: #qRLn7DXPxLrg5fzq!</p><p style=\"margin-bottom: 0px\">Profile: <a href=\"StructureDefinition-VA.MHV.PHR.immunization.html\">VA MHV PHR Immunization</a></p></div><p><b>identifier</b>: id:\u00a0ImmunizationTO.124694\u00a0(use:\u00a0USUAL)</p><p><b>status</b>: completed</p><p><b>vaccineCode</b>: COVID-19 (MODERNA), MRNA, LNP-S, PF, 100 MCG/0.5ML DOSE OR 50 MCG/0.25ML DOSE <span style=\"background: LightGoldenRodYellow; margin: 4px; border: 1px solid khaki\"> ()</span></p><p><b>patient</b>: <a href=\"Patient-27659.html\">Patient/27659</a> &quot; TEST&quot;</p><p><b>occurrence</b>: 2022-08-18 16:29:23-0400</p><p><b>primarySource</b>: Absent because : <code>unknown</code></p><p><b>location</b>: <a name=\"Location-0\"> </a></p><blockquote><p/><p><a name=\"Location-0\"> </a></p><p><b>name</b>: ADMISSIONS (LOC)</p></blockquote><h3>Performers</h3><table class=\"grid\"><tr><td style=\"display: none\">-</td><td><b>Actor</b></td></tr><tr><td style=\"display: none\">*</td><td><a name=\"Organization-0\"> </a><blockquote><p/><p><a name=\"Organization-0\"> </a></p><p><b>identifier</b>: L:\u00a0552\u00a0(use:\u00a0USUAL)</p><p><b>active</b>: true</p><p><b>name</b>: DAYTON</p></blockquote></td></tr></table><hr/><blockquote><p><b>Generated Narrative: Location #Location-0</b><a name=\"Location-0\"> </a></p><p><b>name</b>: ADMISSIONS (LOC)</p></blockquote><hr/><blockquote><p><b>Generated Narrative: Organization #Organization-0</b><a name=\"Organization-0\"> </a></p><p><b>identifier</b>: L:\u00a0552\u00a0(use:\u00a0USUAL)</p><p><b>active</b>: true</p><p><b>name</b>: DAYTON</p></blockquote></div>"
      },
      "contained" : [{
        "resourceType" : "Location",
        "id" : "Location-0",
        "name" : "ADMISSIONS (LOC)"
      },
      {
        "resourceType" : "Organization",
        "id" : "Organization-0",
        "meta" : {
          "profile" : ["https://department-of-veterans-affairs.github.io/mhv-fhir-phr-mapping/StructureDefinition/VA.MHV.PHR.organization"]
        },
        "identifier" : [{
          "use" : "usual",
          "type" : {
            "text" : "L"
          },
          "system" : "urn:oid:2.16.840.1.113883.4.349",
          "value" : "552"
        }],
        "active" : true,
        "name" : "DAYTON"
      }],
      "identifier" : [{
        "use" : "usual",
        "system" : "urn:oid:2.16.840.1.113883.4.349.4.984",
        "value" : "ImmunizationTO.124694"
      }],
      "status" : "completed",
      "vaccineCode" : {
        "text" : "COVID-19 (MODERNA), MRNA, LNP-S, PF, 100 MCG/0.5ML DOSE OR 50 MCG/0.25ML DOSE"
      },
      "patient" : {
        "reference" : "Patient/27659"
      },
      "occurrenceDateTime" : "2022-08-18T16:29:23-04:00",
      "_primarySource" : {
        "extension" : [{
          "url" : "http://hl7.org/fhir/StructureDefinition/data-absent-reason",
          "valueCode" : "unknown"
        }]
      },
      "location" : {
        "reference" : "#Location-0"
      },
      "performer" : [{
        "actor" : {
          "reference" : "#Organization-0"
        }
      }]
    },
    "search" : {
      "mode" : "match"
    }
  },
  {
    "fullUrl" : "http://localhost:8081/fhir/Immunization/27653",
    "resource" : {
      "resourceType" : "Immunization",
      "id" : "27653",
      "meta" : {
        "versionId" : "29",
        "lastUpdated" : "2023-11-14T12:55:38.977-05:00",
        "source" : "#qRLn7DXPxLrg5fzq",
        "profile" : ["https://department-of-veterans-affairs.github.io/mhv-fhir-phr-mapping/StructureDefinition/VA.MHV.PHR.immunization"]
      },
      "text" : {
        "status" : "generated",
        "div" : "<div xmlns=\"http://www.w3.org/1999/xhtml\"><p><b>Generated Narrative: Immunization</b><a name=\"27653\"> </a></p><div style=\"display: inline-block; background-color: #d9e0e7; padding: 6px; margin: 4px; border: 1px solid #8da1b4; border-radius: 5px; line-height: 60%\"><p style=\"margin-bottom: 0px\">Resource Immunization &quot;27653&quot; Version &quot;29&quot; Updated &quot;2023-11-14 12:55:38-0500&quot; </p><p style=\"margin-bottom: 0px\">Information Source: #qRLn7DXPxLrg5fzq!</p><p style=\"margin-bottom: 0px\">Profile: <a href=\"StructureDefinition-VA.MHV.PHR.immunization.html\">VA MHV PHR Immunization</a></p></div><p><b>identifier</b>: id:\u00a0ImmunizationTO.125286\u00a0(use:\u00a0USUAL)</p><p><b>status</b>: completed</p><p><b>vaccineCode</b>: ZOSTER RECOMBINANT <span style=\"background: LightGoldenRodYellow; margin: 4px; border: 1px solid khaki\"> (<a href=\"http://terminology.hl7.org/5.0.0/CodeSystem-CPT.html\">Current Procedural Terminology (CPT®)</a>#90750 &quot;HZV VACC RECOMBINANT IM&quot;)</span></p><p><b>patient</b>: <a href=\"Patient-27659.html\">Patient/27659</a> &quot; TEST&quot;</p><p><b>occurrence</b>: 2023-10-13 11:15:00-0400</p><p><b>primarySource</b>: Absent because : <code>unknown</code></p><p><b>location</b>: <a name=\"Location-0\"> </a></p><blockquote><p/><p><a name=\"Location-0\"> </a></p><p><b>name</b>: AUDIOLOGY FELLOW (PM)</p></blockquote><blockquote><p><b>performer</b></p><p><b>actor</b>: <a name=\"Organization-0\"> </a></p><blockquote><p/><p><a name=\"Organization-0\"> </a></p><p><b>identifier</b>: L:\u00a0984\u00a0(use:\u00a0USUAL)</p><p><b>active</b>: true</p><p><b>name</b>: DAYTSHR TEST LAB</p></blockquote></blockquote><blockquote><p><b>performer</b></p><p><b>function</b>: Administering Provider <span style=\"background: LightGoldenRodYellow; margin: 4px; border: 1px solid khaki\"> (<a href=\"http://terminology.hl7.org/5.0.0/CodeSystem-v2-0443.html\">providerRole</a>#AP)</span></p><p><b>actor</b>: <a name=\"Provider-0\"> </a></p><blockquote><p/><p><a name=\"Provider-0\"> </a></p><p><b>identifier</b>: id:\u00a00\u00a0(use:\u00a0USUAL)</p><p><b>name</b>: KHAN,MUAZZAM</p></blockquote></blockquote><p><b>note</b>: test series 1</p><h3>ProtocolApplieds</h3><table class=\"grid\"><tr><td style=\"display: none\">-</td><td><b>Series</b></td><td><b>DoseNumber[x]</b></td></tr><tr><td style=\"display: none\">*</td><td>SERIES 1</td><td>1</td></tr></table><hr/><blockquote><p><b>Generated Narrative: Location #Location-0</b><a name=\"Location-0\"> </a></p><p><b>name</b>: AUDIOLOGY FELLOW (PM)</p></blockquote><hr/><blockquote><p><b>Generated Narrative: Organization #Organization-0</b><a name=\"Organization-0\"> </a></p><p><b>identifier</b>: L:\u00a0984\u00a0(use:\u00a0USUAL)</p><p><b>active</b>: true</p><p><b>name</b>: DAYTSHR TEST LAB</p></blockquote><hr/><blockquote><p><b>Generated Narrative: Practitioner #Provider-0</b><a name=\"Provider-0\"> </a></p><p><b>identifier</b>: id:\u00a00\u00a0(use:\u00a0USUAL)</p><p><b>name</b>: KHAN,MUAZZAM</p></blockquote></div>"
      },
      "contained" : [{
        "resourceType" : "Location",
        "id" : "Location-0",
        "name" : "AUDIOLOGY FELLOW (PM)"
      },
      {
        "resourceType" : "Organization",
        "id" : "Organization-0",
        "meta" : {
          "profile" : ["https://department-of-veterans-affairs.github.io/mhv-fhir-phr-mapping/StructureDefinition/VA.MHV.PHR.organization"]
        },
        "identifier" : [{
          "use" : "usual",
          "type" : {
            "text" : "L"
          },
          "system" : "urn:oid:2.16.840.1.113883.4.349",
          "value" : "984"
        }],
        "active" : true,
        "name" : "DAYTSHR TEST LAB"
      },
      {
        "resourceType" : "Practitioner",
        "id" : "Provider-0",
        "identifier" : [{
          "use" : "usual",
          "system" : "urn:oid:2.16.840.1.113883.4.349",
          "value" : "0"
        }],
        "name" : [{
          "text" : "KHAN,MUAZZAM"
        }]
      }],
      "identifier" : [{
        "use" : "usual",
        "system" : "urn:oid:2.16.840.1.113883.4.349.4.984",
        "value" : "ImmunizationTO.125286"
      }],
      "status" : "completed",
      "vaccineCode" : {
        "coding" : [{
          "system" : "http://www.ama-assn.org/go/cpt",
          "code" : "90750",
          "display" : "HZV VACC RECOMBINANT IM"
        }],
        "text" : "ZOSTER RECOMBINANT"
      },
      "patient" : {
        "reference" : "Patient/27659"
      },
      "occurrenceDateTime" : "2023-10-13T11:15:00-04:00",
      "_primarySource" : {
        "extension" : [{
          "url" : "http://hl7.org/fhir/StructureDefinition/data-absent-reason",
          "valueCode" : "unknown"
        }]
      },
      "location" : {
        "reference" : "#Location-0"
      },
      "performer" : [{
        "actor" : {
          "reference" : "#Organization-0"
        }
      },
      {
        "function" : {
          "coding" : [{
            "system" : "http://terminology.hl7.org/CodeSystem/v2-0443",
            "code" : "AP"
          }]
        },
        "actor" : {
          "reference" : "#Provider-0"
        }
      }],
      "note" : [{
        "text" : "test series 1"
      }],
      "protocolApplied" : [{
        "series" : "SERIES 1",
        "doseNumberString" : "1"
      }]
    },
    "search" : {
      "mode" : "match"
    }
  },
  {
    "fullUrl" : "http://localhost:8081/fhir/Immunization/28653",
    "resource" : {
      "resourceType" : "Immunization",
      "id" : "28653",
      "meta" : {
        "versionId" : "15",
        "lastUpdated" : "2023-11-14T12:55:38.977-05:00",
        "source" : "#qRLn7DXPxLrg5fzq",
        "profile" : ["https://department-of-veterans-affairs.github.io/mhv-fhir-phr-mapping/StructureDefinition/VA.MHV.PHR.immunization"]
      },
      "text" : {
        "status" : "generated",
        "div" : "<div xmlns=\"http://www.w3.org/1999/xhtml\"><p><b>Generated Narrative: Immunization</b><a name=\"28653\"> </a></p><div style=\"display: inline-block; background-color: #d9e0e7; padding: 6px; margin: 4px; border: 1px solid #8da1b4; border-radius: 5px; line-height: 60%\"><p style=\"margin-bottom: 0px\">Resource Immunization &quot;28653&quot; Version &quot;15&quot; Updated &quot;2023-11-14 12:55:38-0500&quot; </p><p style=\"margin-bottom: 0px\">Information Source: #qRLn7DXPxLrg5fzq!</p><p style=\"margin-bottom: 0px\">Profile: <a href=\"StructureDefinition-VA.MHV.PHR.immunization.html\">VA MHV PHR Immunization</a></p></div><p><b>identifier</b>: id:\u00a0ImmunizationTO.125308\u00a0(use:\u00a0USUAL)</p><p><b>status</b>: completed</p><p><b>vaccineCode</b>: HPV9 <span style=\"background: LightGoldenRodYellow; margin: 4px; border: 1px solid khaki\"> (<a href=\"http://terminology.hl7.org/5.0.0/CodeSystem-CPT.html\">Current Procedural Terminology (CPT®)</a>#90651 &quot;9VHPV VACCINE 2/3 DOSE IM&quot;)</span></p><p><b>patient</b>: <a href=\"Patient-27659.html\">Patient/27659</a> &quot; TEST&quot;</p><p><b>occurrence</b>: 2023-10-31 13:16:00-0400</p><p><b>primarySource</b>: Absent because : <code>unknown</code></p><p><b>location</b>: <a name=\"Location-0\"> </a></p><blockquote><p/><p><a name=\"Location-0\"> </a></p><p><b>name</b>: 23 HOUR OBSERVATION</p></blockquote><blockquote><p><b>performer</b></p><p><b>actor</b>: <a name=\"Organization-0\"> </a></p><blockquote><p/><p><a name=\"Organization-0\"> </a></p><p><b>identifier</b>: L:\u00a0984\u00a0(use:\u00a0USUAL)</p><p><b>active</b>: true</p><p><b>name</b>: DAYTSHR TEST LAB</p></blockquote></blockquote><blockquote><p><b>performer</b></p><p><b>function</b>: Administering Provider <span style=\"background: LightGoldenRodYellow; margin: 4px; border: 1px solid khaki\"> (<a href=\"http://terminology.hl7.org/5.0.0/CodeSystem-v2-0443.html\">providerRole</a>#AP)</span></p><p><b>actor</b>: <a name=\"Provider-0\"> </a></p><blockquote><p/><p><a name=\"Provider-0\"> </a></p><p><b>identifier</b>: id:\u00a00\u00a0(use:\u00a0USUAL)</p><p><b>name</b>: KHAN,MUAZZAM</p></blockquote></blockquote><p><b>note</b>: Entered Booster as series </p><h3>ProtocolApplieds</h3><table class=\"grid\"><tr><td style=\"display: none\">-</td><td><b>Series</b></td><td><b>DoseNumber[x]</b></td></tr><tr><td style=\"display: none\">*</td><td>BOOSTER</td><td>B</td></tr></table><hr/><blockquote><p><b>Generated Narrative: Location #Location-0</b><a name=\"Location-0\"> </a></p><p><b>name</b>: 23 HOUR OBSERVATION</p></blockquote><hr/><blockquote><p><b>Generated Narrative: Organization #Organization-0</b><a name=\"Organization-0\"> </a></p><p><b>identifier</b>: L:\u00a0984\u00a0(use:\u00a0USUAL)</p><p><b>active</b>: true</p><p><b>name</b>: DAYTSHR TEST LAB</p></blockquote><hr/><blockquote><p><b>Generated Narrative: Practitioner #Provider-0</b><a name=\"Provider-0\"> </a></p><p><b>identifier</b>: id:\u00a00\u00a0(use:\u00a0USUAL)</p><p><b>name</b>: KHAN,MUAZZAM</p></blockquote></div>"
      },
      "contained" : [{
        "resourceType" : "Location",
        "id" : "Location-0",
        "name" : "23 HOUR OBSERVATION"
      },
      {
        "resourceType" : "Organization",
        "id" : "Organization-0",
        "meta" : {
          "profile" : ["https://department-of-veterans-affairs.github.io/mhv-fhir-phr-mapping/StructureDefinition/VA.MHV.PHR.organization"]
        },
        "identifier" : [{
          "use" : "usual",
          "type" : {
            "text" : "L"
          },
          "system" : "urn:oid:2.16.840.1.113883.4.349",
          "value" : "984"
        }],
        "active" : true,
        "name" : "DAYTSHR TEST LAB"
      },
      {
        "resourceType" : "Practitioner",
        "id" : "Provider-0",
        "identifier" : [{
          "use" : "usual",
          "system" : "urn:oid:2.16.840.1.113883.4.349",
          "value" : "0"
        }],
        "name" : [{
          "text" : "KHAN,MUAZZAM"
        }]
      }],
      "identifier" : [{
        "use" : "usual",
        "system" : "urn:oid:2.16.840.1.113883.4.349.4.984",
        "value" : "ImmunizationTO.125308"
      }],
      "status" : "completed",
      "vaccineCode" : {
        "coding" : [{
          "system" : "http://www.ama-assn.org/go/cpt",
          "code" : "90651",
          "display" : "9VHPV VACCINE 2/3 DOSE IM"
        }],
        "text" : "HPV9"
      },
      "patient" : {
        "reference" : "Patient/27659"
      },
      "occurrenceDateTime" : "2023-10-31T13:16:00-04:00",
      "_primarySource" : {
        "extension" : [{
          "url" : "http://hl7.org/fhir/StructureDefinition/data-absent-reason",
          "valueCode" : "unknown"
        }]
      },
      "location" : {
        "reference" : "#Location-0"
      },
      "performer" : [{
        "actor" : {
          "reference" : "#Organization-0"
        }
      },
      {
        "function" : {
          "coding" : [{
            "system" : "http://terminology.hl7.org/CodeSystem/v2-0443",
            "code" : "AP"
          }]
        },
        "actor" : {
          "reference" : "#Provider-0"
        }
      }],
      "note" : [{
        "text" : "Entered Booster as series "
      }],
      "protocolApplied" : [{
        "series" : "BOOSTER",
        "doseNumberString" : "B"
      }]
    },
    "search" : {
      "mode" : "match"
    }
  },
  {
    "fullUrl" : "http://localhost:8081/fhir/Immunization/29652",
    "resource" : {
      "resourceType" : "Immunization",
      "id" : "29652",
      "meta" : {
        "versionId" : "1",
        "lastUpdated" : "2023-11-14T12:55:38.977-05:00",
        "source" : "#qRLn7DXPxLrg5fzq",
        "profile" : ["https://department-of-veterans-affairs.github.io/mhv-fhir-phr-mapping/StructureDefinition/VA.MHV.PHR.immunization"]
      },
      "text" : {
        "status" : "generated",
        "div" : "<div xmlns=\"http://www.w3.org/1999/xhtml\"><p><b>Generated Narrative: Immunization</b><a name=\"29652\"> </a></p><div style=\"display: inline-block; background-color: #d9e0e7; padding: 6px; margin: 4px; border: 1px solid #8da1b4; border-radius: 5px; line-height: 60%\"><p style=\"margin-bottom: 0px\">Resource Immunization &quot;29652&quot; Version &quot;1&quot; Updated &quot;2023-11-14 12:55:38-0500&quot; </p><p style=\"margin-bottom: 0px\">Information Source: #qRLn7DXPxLrg5fzq!</p><p style=\"margin-bottom: 0px\">Profile: <a href=\"StructureDefinition-VA.MHV.PHR.immunization.html\">VA MHV PHR Immunization</a></p></div><p><b>identifier</b>: id:\u00a0ImmunizationTO.125310\u00a0(use:\u00a0USUAL)</p><p><b>status</b>: completed</p><p><b>vaccineCode</b>: MENINGOCOCCAL CONJUGATE QUADRIVALENT, MENACWY-TT (MCV4) <span style=\"background: LightGoldenRodYellow; margin: 4px; border: 1px solid khaki\"> (<a href=\"http://terminology.hl7.org/5.0.0/CodeSystem-CPT.html\">Current Procedural Terminology (CPT®)</a>#90619 &quot;MENACWY-TT VACCINE IM&quot;)</span></p><p><b>patient</b>: <a href=\"Patient-27659.html\">Patient/27659</a> &quot; TEST&quot;</p><p><b>occurrence</b>: 2023-10-27 10:00:00-0400</p><p><b>primarySource</b>: Absent because : <code>unknown</code></p><p><b>location</b>: <a name=\"Location-0\"> </a></p><blockquote><p/><p><a name=\"Location-0\"> </a></p><p><b>name</b>: ADTP BURNETT</p></blockquote><blockquote><p><b>performer</b></p><p><b>actor</b>: <a name=\"Organization-0\"> </a></p><blockquote><p/><p><a name=\"Organization-0\"> </a></p><p><b>identifier</b>: L:\u00a0984\u00a0(use:\u00a0USUAL)</p><p><b>active</b>: true</p><p><b>name</b>: DAYTSHR TEST LAB</p></blockquote></blockquote><blockquote><p><b>performer</b></p><p><b>function</b>: Administering Provider <span style=\"background: LightGoldenRodYellow; margin: 4px; border: 1px solid khaki\"> (<a href=\"http://terminology.hl7.org/5.0.0/CodeSystem-v2-0443.html\">providerRole</a>#AP)</span></p><p><b>actor</b>: <a name=\"Provider-0\"> </a></p><blockquote><p/><p><a name=\"Provider-0\"> </a></p><p><b>identifier</b>: id:\u00a00\u00a0(use:\u00a0USUAL)</p><p><b>name</b>: AHMED,MARUF</p></blockquote></blockquote><p><b>note</b>: MENINGOCOCCAL CONJUGATE QUADRIVALENT, MENACWY-TT (MCV4) TEST</p><h3>ProtocolApplieds</h3><table class=\"grid\"><tr><td style=\"display: none\">-</td><td><b>Series</b></td><td><b>DoseNumber[x]</b></td></tr><tr><td style=\"display: none\">*</td><td>SERIES 1</td><td>1</td></tr></table><hr/><blockquote><p><b>Generated Narrative: Location #Location-0</b><a name=\"Location-0\"> </a></p><p><b>name</b>: ADTP BURNETT</p></blockquote><hr/><blockquote><p><b>Generated Narrative: Organization #Organization-0</b><a name=\"Organization-0\"> </a></p><p><b>identifier</b>: L:\u00a0984\u00a0(use:\u00a0USUAL)</p><p><b>active</b>: true</p><p><b>name</b>: DAYTSHR TEST LAB</p></blockquote><hr/><blockquote><p><b>Generated Narrative: Practitioner #Provider-0</b><a name=\"Provider-0\"> </a></p><p><b>identifier</b>: id:\u00a00\u00a0(use:\u00a0USUAL)</p><p><b>name</b>: AHMED,MARUF</p></blockquote></div>"
      },
      "contained" : [{
        "resourceType" : "Location",
        "id" : "Location-0",
        "name" : "ADTP BURNETT"
      },
      {
        "resourceType" : "Organization",
        "id" : "Organization-0",
        "meta" : {
          "profile" : ["https://department-of-veterans-affairs.github.io/mhv-fhir-phr-mapping/StructureDefinition/VA.MHV.PHR.organization"]
        },
        "identifier" : [{
          "use" : "usual",
          "type" : {
            "text" : "L"
          },
          "system" : "urn:oid:2.16.840.1.113883.4.349",
          "value" : "984"
        }],
        "active" : true,
        "name" : "DAYTSHR TEST LAB"
      },
      {
        "resourceType" : "Practitioner",
        "id" : "Provider-0",
        "identifier" : [{
          "use" : "usual",
          "system" : "urn:oid:2.16.840.1.113883.4.349",
          "value" : "0"
        }],
        "name" : [{
          "text" : "AHMED,MARUF"
        }]
      }],
      "identifier" : [{
        "use" : "usual",
        "system" : "urn:oid:2.16.840.1.113883.4.349.4.984",
        "value" : "ImmunizationTO.125310"
      }],
      "status" : "completed",
      "vaccineCode" : {
        "coding" : [{
          "system" : "http://www.ama-assn.org/go/cpt",
          "code" : "90619",
          "display" : "MENACWY-TT VACCINE IM"
        }],
        "text" : "MENINGOCOCCAL CONJUGATE QUADRIVALENT, MENACWY-TT (MCV4)"
      },
      "patient" : {
        "reference" : "Patient/27659"
      },
      "occurrenceDateTime" : "2023-10-27T10:00:00-04:00",
      "_primarySource" : {
        "extension" : [{
          "url" : "http://hl7.org/fhir/StructureDefinition/data-absent-reason",
          "valueCode" : "unknown"
        }]
      },
      "location" : {
        "reference" : "#Location-0"
      },
      "performer" : [{
        "actor" : {
          "reference" : "#Organization-0"
        }
      },
      {
        "function" : {
          "coding" : [{
            "system" : "http://terminology.hl7.org/CodeSystem/v2-0443",
            "code" : "AP"
          }]
        },
        "actor" : {
          "reference" : "#Provider-0"
        }
      }],
      "note" : [{
        "text" : "MENINGOCOCCAL CONJUGATE QUADRIVALENT, MENACWY-TT (MCV4) TEST"
      }],
      "protocolApplied" : [{
        "series" : "SERIES 1",
        "doseNumberString" : "1"
      }]
    },
    "search" : {
      "mode" : "match"
    }
  }]
}