{
  "resourceType" : "Bundle",
  "id" : "fhirlabsample2",
  "type" : "transaction",
  "entry" : [{
    "fullUrl" : "http://example.org/fhir/Patient/123456",
    "resource" : {
      "resourceType" : "Patient",
      "text" : {
        "status" : "generated",
        "div" : "<div xmlns=\"http://www.w3.org/1999/xhtml\"><p><b>Generated Narrative: Patient</b></p><div style=\"display: inline-block; background-color: #d9e0e7; padding: 6px; margin: 4px; border: 1px solid #8da1b4; border-radius: 5px; line-height: 60%\"/><p><b>identifier</b>: id:\u00a0942104\u00a0(use:\u00a0USUAL)</p><p><b>name</b>: TESTFIVE L MHVSYSTEST </p><p><b>gender</b>: unknown</p></div>"
      },
      "identifier" : [{
        "use" : "usual",
        "system" : "http://va.gov/systems/USVHA",
        "value" : "942104",
        "assigner" : {
          "display" : "979"
        }
      }],
      "name" : [{
        "family" : "MHVSYSTEST",
        "given" : ["TESTFIVE",
        "L"]
      }],
      "gender" : "unknown"
    },
    "request" : {
      "method" : "POST",
      "url" : "Patient"
    }
  },
  {
    "fullUrl" : "http://example.org/fhir/Practitioner/59845-VA660",
    "resource" : {
      "resourceType" : "Practitioner",
      "text" : {
        "status" : "generated",
        "div" : "<div xmlns=\"http://www.w3.org/1999/xhtml\"><p><b>Generated Narrative: Practitioner</b></p><div style=\"display: inline-block; background-color: #d9e0e7; padding: 6px; margin: 4px; border: 1px solid #8da1b4; border-radius: 5px; line-height: 60%\"/><p><b>identifier</b>: id:\u00a059845-VA660\u00a0(use:\u00a0SECONDARY)</p><p><b>name</b>: LISA HALL </p></div>"
      },
      "identifier" : [{
        "use" : "secondary",
        "system" : "http://va.gov/systems/99VA",
        "value" : "59845-VA660"
      }],
      "name" : [{
        "family" : "HALL",
        "given" : ["LISA"]
      }]
    },
    "request" : {
      "method" : "POST",
      "url" : "Practitioner"
    }
  },
  {
    "fullUrl" : "http://example.org/fhir/Organization/660",
    "resource" : {
      "resourceType" : "Organization",
      "text" : {
        "status" : "generated",
        "div" : "<div xmlns=\"http://www.w3.org/1999/xhtml\"><p><b>Generated Narrative: Organization</b></p><div style=\"display: inline-block; background-color: #d9e0e7; padding: 6px; margin: 4px; border: 1px solid #8da1b4; border-radius: 5px; line-height: 60%\"/><p><b>identifier</b>: id:\u00a0660\u00a0(use:\u00a0USUAL)</p><p><b>active</b>: true</p><p><b>name</b>: VA SALT LAKE CITY HEALTH CARE SYSTEM (660)</p></div>"
      },
      "identifier" : [{
        "use" : "usual",
        "system" : "urn:oid:2.16.840.1.113883.4.349",
        "value" : "660"
      }],
      "active" : true,
      "name" : "VA SALT LAKE CITY HEALTH CARE SYSTEM (660)"
    },
    "request" : {
      "method" : "POST",
      "url" : "Organization"
    }
  },
  {
    "fullUrl" : "urn:uuid:337307e4-3ea0-4435-942d-2c9f67acd814",
    "resource" : {
      "resourceType" : "DiagnosticReport",
      "meta" : {
        "lastUpdated" : "2019-03-15T17:00:44-05:00",
        "profile" : ["https://johnmoehrke.github.io/MHV-PHR/StructureDefinition/VA.MHV.PHR.chReport"]
      },
      "text" : {
        "status" : "generated",
        "div" : "<div xmlns=\"http://www.w3.org/1999/xhtml\"><p><b>Generated Narrative: DiagnosticReport</b></p><div style=\"display: inline-block; background-color: #d9e0e7; padding: 6px; margin: 4px; border: 1px solid #8da1b4; border-radius: 5px; line-height: 60%\"><p style=\"margin-bottom: 0px\">Resource DiagnosticReport Updated &quot;2019-03-15 17:00:44-0500&quot; </p><p style=\"margin-bottom: 0px\">Profile: <a href=\"StructureDefinition-VA.MHV.PHR.chReport.html\">VA MHV PHR HDR Chem-Hem Report</a></p></div><p><b>identifier</b>: id:\u00a01190740002\u00a0(use:\u00a0USUAL)</p><p><b>status</b>: final</p><p><b>category</b>: Laboratory <span style=\"background: LightGoldenRodYellow; margin: 4px; border: 1px solid khaki\"> (<a href=\"http://terminology.hl7.org/3.1.0/CodeSystem-v2-0074.html\">diagnosticServiceSectionId</a>#LAB)</span>, CHLORIDE <span style=\"background: LightGoldenRodYellow; margin: 4px; border: 1px solid khaki\"> (<a href=\"https://loinc.org/\">LOINC</a>#2078-4)</span>, POTASSIUM <span style=\"background: LightGoldenRodYellow; margin: 4px; border: 1px solid khaki\"> (<a href=\"https://loinc.org/\">LOINC</a>#2823-3)</span></p><p><b>code</b>: CH <span style=\"background: LightGoldenRodYellow; margin: 4px; border: 1px solid khaki\"> ()</span></p><p><b>subject</b>: <a href=\"#http__example.org_fhir_Patient_123456\">See above (http://example.org/fhir/Patient/123456)</a></p><p><b>effective</b>: 2019-03-15 17:00:42-0500</p><p><b>issued</b>: Mar 15, 2019, 5:00:42 PM</p><p><b>performer</b>: </p><ul><li><a href=\"#http__example.org_fhir_Practitioner_59845-VA660\">See above (http://example.org/fhir/Practitioner/59845-VA660)</a></li><li><a href=\"#http__example.org_fhir_Organization_660\">See above (http://example.org/fhir/Organization/660)</a></li></ul><p><b>specimen</b>: <a name=\"0\"> </a></p><blockquote><p/><p><a name=\"0\"> </a></p><p><b>status</b>: available</p><p><b>type</b>: URINE <span style=\"background: LightGoldenRodYellow; margin: 4px; border: 1px solid khaki\"> (<a href=\"https://browser.ihtsdotools.org/\">SNOMED CT</a>#78014005 &quot;Urine (substance)&quot;; HL70070[5.2]#UR &quot;Urine&quot;)</span></p><h3>Collections</h3><table class=\"grid\"><tr><td>-</td><td><b>Collected[x]</b></td></tr><tr><td>*</td><td>2019-03-15 16:59:44-0400</td></tr></table></blockquote><p><b>result</b>: </p><ul><li><a name=\"1.0\"> </a></li><li><a name=\"2.0\"> </a></li></ul><blockquote><p/><p><a name=\"1.0\"> </a></p><p><b>status</b>: final</p><p><b>category</b>: Laboratory <span style=\"background: LightGoldenRodYellow; margin: 4px; border: 1px solid khaki\"> (<a href=\"http://terminology.hl7.org/3.1.0/CodeSystem-observation-category.html\">Observation Category Codes</a>#laboratory)</span>, Chloride <span style=\"background: LightGoldenRodYellow; margin: 4px; border: 1px solid khaki\"> (99VA64#82435.0000)</span>, CHLORIDE <span style=\"background: LightGoldenRodYellow; margin: 4px; border: 1px solid khaki\"> (99VA60#178)</span></p><p><b>code</b>: CHLORIDE:SCNC:PT:URINE:QN: <span style=\"background: LightGoldenRodYellow; margin: 4px; border: 1px solid khaki\"> (<a href=\"https://loinc.org/\">LOINC[2.68]</a>#2078-4 &quot;CHLORIDE&quot;)</span></p><p><b>subject</b>: <a href=\"#http__example.org_fhir_Patient_123456\">See above (http://example.org/fhir/Patient/123456)</a></p><p><b>performer</b>: <a href=\"#http__example.org_fhir_Organization_660\">See above (http://example.org/fhir/Organization/660)</a></p><p><b>value</b>: 99 mmol/L<span style=\"background: LightGoldenRodYellow\"> (Details: UCUM code mmol/L = 'mmol/L')</span></p></blockquote><blockquote><p/><p><a name=\"2.0\"> </a></p><p><b>status</b>: final</p><p><b>category</b>: Laboratory <span style=\"background: LightGoldenRodYellow; margin: 4px; border: 1px solid khaki\"> (<a href=\"http://terminology.hl7.org/3.1.0/CodeSystem-observation-category.html\">Observation Category Codes</a>#laboratory)</span>, Potassium <span style=\"background: LightGoldenRodYellow; margin: 4px; border: 1px solid khaki\"> (99VA64#84140.0000)</span>, POTASSIUM <span style=\"background: LightGoldenRodYellow; margin: 4px; border: 1px solid khaki\"> (99VA60#177)</span></p><p><b>code</b>: POTASSIUM:SCNC:PT:SER/PLAS:QN: <span style=\"background: LightGoldenRodYellow; margin: 4px; border: 1px solid khaki\"> (<a href=\"https://loinc.org/\">LOINC[2.64]</a>#2823-3 &quot;POTASSIUM&quot;)</span></p><p><b>subject</b>: <a href=\"#http__example.org_fhir_Patient_123456\">See above (http://example.org/fhir/Patient/123456)</a></p><p><b>performer</b>: <a href=\"#http__example.org_fhir_Organization_660\">See above (http://example.org/fhir/Organization/660)</a></p><p><b>value</b>: 4.1 mmol/L<span style=\"background: LightGoldenRodYellow\"> (Details: UCUM code mmol/L = 'mmol/L')</span></p><h3>ReferenceRanges</h3><table class=\"grid\"><tr><td>-</td><td><b>Text</b></td></tr><tr><td>*</td><td>3.8-5.2</td></tr></table></blockquote><p><b>conclusion</b>: Test 3/15/19</p><hr/><blockquote><p><b>Generated Narrative: Specimen #0</b><a name=\"0\"> </a></p><p><b>status</b>: available</p><p><b>type</b>: URINE <span style=\"background: LightGoldenRodYellow; margin: 4px; border: 1px solid khaki\"> (<a href=\"https://browser.ihtsdotools.org/\">SNOMED CT</a>#78014005 &quot;Urine (substance)&quot;; HL70070[5.2]#UR &quot;Urine&quot;)</span></p><h3>Collections</h3><table class=\"grid\"><tr><td>-</td><td><b>Collected[x]</b></td></tr><tr><td>*</td><td>2019-03-15 16:59:44-0400</td></tr></table></blockquote><hr/><blockquote><p><b>Generated Narrative: Observation #1.0</b><a name=\"1.0\"> </a></p><p><b>status</b>: final</p><p><b>category</b>: Laboratory <span style=\"background: LightGoldenRodYellow; margin: 4px; border: 1px solid khaki\"> (<a href=\"http://terminology.hl7.org/3.1.0/CodeSystem-observation-category.html\">Observation Category Codes</a>#laboratory)</span>, Chloride <span style=\"background: LightGoldenRodYellow; margin: 4px; border: 1px solid khaki\"> (99VA64#82435.0000)</span>, CHLORIDE <span style=\"background: LightGoldenRodYellow; margin: 4px; border: 1px solid khaki\"> (99VA60#178)</span></p><p><b>code</b>: CHLORIDE:SCNC:PT:URINE:QN: <span style=\"background: LightGoldenRodYellow; margin: 4px; border: 1px solid khaki\"> (<a href=\"https://loinc.org/\">LOINC[2.68]</a>#2078-4 &quot;CHLORIDE&quot;)</span></p><p><b>subject</b>: <a href=\"Bundle-fhirlabsample2.html#http-//example.org/fhir/Patient/123456\">http://example.org/fhir/Patient/123456</a></p><p><b>performer</b>: <a href=\"Bundle-fhirlabsample2.html#http-//example.org/fhir/Organization/660\">http://example.org/fhir/Organization/660</a></p><p><b>value</b>: 99 mmol/L<span style=\"background: LightGoldenRodYellow\"> (Details: UCUM code mmol/L = 'mmol/L')</span></p></blockquote><hr/><blockquote><p><b>Generated Narrative: Observation #2.0</b><a name=\"2.0\"> </a></p><p><b>status</b>: final</p><p><b>category</b>: Laboratory <span style=\"background: LightGoldenRodYellow; margin: 4px; border: 1px solid khaki\"> (<a href=\"http://terminology.hl7.org/3.1.0/CodeSystem-observation-category.html\">Observation Category Codes</a>#laboratory)</span>, Potassium <span style=\"background: LightGoldenRodYellow; margin: 4px; border: 1px solid khaki\"> (99VA64#84140.0000)</span>, POTASSIUM <span style=\"background: LightGoldenRodYellow; margin: 4px; border: 1px solid khaki\"> (99VA60#177)</span></p><p><b>code</b>: POTASSIUM:SCNC:PT:SER/PLAS:QN: <span style=\"background: LightGoldenRodYellow; margin: 4px; border: 1px solid khaki\"> (<a href=\"https://loinc.org/\">LOINC[2.64]</a>#2823-3 &quot;POTASSIUM&quot;)</span></p><p><b>subject</b>: <a href=\"Bundle-fhirlabsample2.html#http-//example.org/fhir/Patient/123456\">http://example.org/fhir/Patient/123456</a></p><p><b>performer</b>: <a href=\"Bundle-fhirlabsample2.html#http-//example.org/fhir/Organization/660\">http://example.org/fhir/Organization/660</a></p><p><b>value</b>: 4.1 mmol/L<span style=\"background: LightGoldenRodYellow\"> (Details: UCUM code mmol/L = 'mmol/L')</span></p><h3>ReferenceRanges</h3><table class=\"grid\"><tr><td>-</td><td><b>Text</b></td></tr><tr><td>*</td><td>3.8-5.2</td></tr></table></blockquote></div>"
      },
      "contained" : [{
        "resourceType" : "Specimen",
        "id" : "0",
        "status" : "available",
        "type" : {
          "coding" : [{
            "system" : "http://snomed.info/sct",
            "code" : "78014005",
            "display" : "Urine (substance)"
          },
          {
            "system" : "http://va.gov/systems/HL70070",
            "version" : "5.2",
            "code" : "UR",
            "display" : "Urine"
          }],
          "text" : "URINE"
        },
        "collection" : {
          "collectedDateTime" : "2019-03-15T16:59:44-04:00"
        }
      },
      {
        "resourceType" : "Observation",
        "id" : "1.0",
        "status" : "final",
        "category" : [{
          "coding" : [{
            "system" : "http://terminology.hl7.org/CodeSystem/observation-category",
            "code" : "laboratory"
          }]
        },
        {
          "coding" : [{
            "system" : "http://va.gov/systems/99VA64",
            "code" : "82435.0000",
            "display" : "Chloride"
          }]
        },
        {
          "coding" : [{
            "system" : "http://va.gov/systems/99VA60",
            "code" : "178",
            "display" : "CHLORIDE"
          }]
        }],
        "code" : {
          "coding" : [{
            "system" : "http://loinc.org",
            "version" : "2.68",
            "code" : "2078-4",
            "display" : "CHLORIDE"
          }],
          "text" : "CHLORIDE:SCNC:PT:URINE:QN:"
        },
        "subject" : {
          "reference" : "http://example.org/fhir/Patient/123456"
        },
        "performer" : [{
          "reference" : "http://example.org/fhir/Organization/660"
        }],
        "valueQuantity" : {
          "value" : 99,
          "unit" : "mmol/L",
          "system" : "http://unitsofmeasure.org",
          "code" : "mmol/L"
        }
      },
      {
        "resourceType" : "Observation",
        "id" : "2.0",
        "status" : "final",
        "category" : [{
          "coding" : [{
            "system" : "http://terminology.hl7.org/CodeSystem/observation-category",
            "code" : "laboratory"
          }]
        },
        {
          "coding" : [{
            "system" : "http://va.gov/systems/99VA64",
            "code" : "84140.0000",
            "display" : "Potassium"
          }]
        },
        {
          "coding" : [{
            "system" : "http://va.gov/systems/99VA60",
            "code" : "177",
            "display" : "POTASSIUM"
          }]
        }],
        "code" : {
          "coding" : [{
            "system" : "http://loinc.org",
            "version" : "2.64",
            "code" : "2823-3",
            "display" : "POTASSIUM"
          }],
          "text" : "POTASSIUM:SCNC:PT:SER/PLAS:QN:"
        },
        "subject" : {
          "reference" : "http://example.org/fhir/Patient/123456"
        },
        "performer" : [{
          "reference" : "http://example.org/fhir/Organization/660"
        }],
        "valueQuantity" : {
          "value" : 4.1,
          "unit" : "mmol/L",
          "system" : "http://unitsofmeasure.org",
          "code" : "mmol/L"
        },
        "referenceRange" : [{
          "text" : "3.8-5.2"
        }]
      }],
      "identifier" : [{
        "use" : "usual",
        "system" : "urn:oid:2.16.840.1.113883.4.349.4.989",
        "value" : "1190740002"
      }],
      "status" : "final",
      "category" : [{
        "coding" : [{
          "system" : "http://terminology.hl7.org/CodeSystem/v2-0074",
          "code" : "LAB"
        }]
      },
      {
        "coding" : [{
          "system" : "http://loinc.org",
          "code" : "2078-4",
          "display" : "CHLORIDE"
        }]
      },
      {
        "coding" : [{
          "system" : "http://loinc.org",
          "code" : "2823-3",
          "display" : "POTASSIUM"
        }]
      }],
      "code" : {
        "text" : "CH"
      },
      "subject" : {
        "reference" : "http://example.org/fhir/Patient/123456"
      },
      "effectiveDateTime" : "2019-03-15T17:00:42-05:00",
      "issued" : "2019-03-15T17:00:42-05:00",
      "performer" : [{
        "reference" : "http://example.org/fhir/Practitioner/59845-VA660"
      },
      {
        "reference" : "http://example.org/fhir/Organization/660"
      }],
      "specimen" : [{
        "reference" : "#0"
      }],
      "result" : [{
        "reference" : "#1.0"
      },
      {
        "reference" : "#2.0"
      }],
      "conclusion" : "Test 3/15/19"
    },
    "request" : {
      "method" : "POST",
      "url" : "Observation"
    }
  }]
}