{
  "resourceType" : "DocumentReference",
  "id" : "de517264-b4d0-454b-9afa-46a4491c2009",
  "meta" : {
    "profile" : ["https://department-of-veterans-affairs.github.io/mhv-fhir-phr-mapping/StructureDefinition/VA.MHV.PHR.note"]
  },
  "text" : {
    "status" : "generated",
    "div" : "<div xmlns=\"http://www.w3.org/1999/xhtml\"><p class=\"res-header-id\"><b>Generated Narrative: DocumentReference de517264-b4d0-454b-9afa-46a4491c2009</b></p><a name=\"de517264-b4d0-454b-9afa-46a4491c2009\"> </a><a name=\"hcde517264-b4d0-454b-9afa-46a4491c2009\"> </a><a name=\"de517264-b4d0-454b-9afa-46a4491c2009-en-US\"> </a><p><b>identifier</b>: <code>urn:oid:2.16.840.1.113883.4.349.4.989</code>/NoteTO.53661869\u00a0(use:\u00a0usual,\u00a0)</p><p><b>status</b>: Current</p><p><b>type</b>: <span title=\"Codes:{http://loinc.org 11488-4}\">PODIATRY CONSULT</span></p><p><b>category</b>: <span title=\"Codes:{http://hl7.org/fhir/us/core/CodeSystem/us-core-documentreference-category clinical-note}\">Clinical Note</span></p><p><b>subject</b>: <a href=\"Patient-ex-MHV-patient-0.html\">ROBERT MHVLISAONE  Male, DoB: 1962-08-09 ( urn:oid:2.16.840.1.113883.4.349#0\u00a0(use:\u00a0usual,\u00a0))</a></p><p><b>date</b>: 2018-04-06 11:14:00+0000</p><p><b>author</b>: <a href=\"#hcde517264-b4d0-454b-9afa-46a4491c2009/author-0\">Practitioner QUIJANO,VICTOR J</a></p><p><b>authenticator</b>: <a href=\"#hcde517264-b4d0-454b-9afa-46a4491c2009/approvedBy-0\">Practitioner QUIJANO,VICTOR J</a></p><blockquote><p><b>content</b></p><h3>Attachments</h3><table class=\"grid\"><tr><td style=\"display: none\">-</td><td><b>ContentType</b></td><td><b>Data</b></td><td><b>Title</b></td><td><b>Creation</b></td></tr><tr><td style=\"display: none\">*</td><td>text/plain</td><td><code></code></td><td>PODIATRY - CONSULT REQUESTED</td><td>2018-04-06 11:14:00+0000</td></tr></table></blockquote><h3>Contexts</h3><table class=\"grid\"><tr><td style=\"display: none\">-</td><td><b>Related</b></td></tr><tr><td style=\"display: none\">*</td><td><a href=\"#hcde517264-b4d0-454b-9afa-46a4491c2009/location-0\">Location PORTLAND VA MEDICAL CENTER</a></td></tr></table><hr/><blockquote><p class=\"res-header-id\"><b>Generated Narrative: Practitioner  #author-0</b></p><a name=\"de517264-b4d0-454b-9afa-46a4491c2009/author-0\"> </a><a name=\"hcde517264-b4d0-454b-9afa-46a4491c2009/author-0\"> </a><a name=\"de517264-b4d0-454b-9afa-46a4491c2009/author-0-en-US\"> </a><p><b>identifier</b>: <code>urn:oid:2.16.840.1.113883.4.349.4.989</code>/AuthorTO.114539\u00a0(use:\u00a0usual,\u00a0)</p><p><b>name</b>: QUIJANO,VICTOR J</p></blockquote><hr/><blockquote><p class=\"res-header-id\"><b>Generated Narrative: Practitioner  #approvedBy-0</b></p><a name=\"de517264-b4d0-454b-9afa-46a4491c2009/approvedBy-0\"> </a><a name=\"hcde517264-b4d0-454b-9afa-46a4491c2009/approvedBy-0\"> </a><a name=\"de517264-b4d0-454b-9afa-46a4491c2009/approvedBy-0-en-US\"> </a><p><b>identifier</b>: <code>urn:oid:2.16.840.1.113883.4.349.4.989</code>/AuthorTO.114539\u00a0(use:\u00a0usual,\u00a0)</p><p><b>name</b>: QUIJANO,VICTOR J</p></blockquote><hr/><blockquote><p class=\"res-header-id\"><b>Generated Narrative: Location  #location-0</b></p><a name=\"de517264-b4d0-454b-9afa-46a4491c2009/location-0\"> </a><a name=\"hcde517264-b4d0-454b-9afa-46a4491c2009/location-0\"> </a><a name=\"de517264-b4d0-454b-9afa-46a4491c2009/location-0-en-US\"> </a><p><b>identifier</b>: <code>urn:oid:2.16.840.1.113883.4.349.4.989</code>/LocationTO.648\u00a0(use:\u00a0usual,\u00a0)</p><p><b>name</b>: PORTLAND VA MEDICAL CENTER</p></blockquote></div>"
  },
  "contained" : [{
    "resourceType" : "Practitioner",
    "id" : "author-0",
    "meta" : {
      "profile" : ["https://department-of-veterans-affairs.github.io/mhv-fhir-phr-mapping/StructureDefinition/VA.MHV.PHR.practitioner"]
    },
    "identifier" : [{
      "use" : "usual",
      "system" : "urn:oid:2.16.840.1.113883.4.349.4.989",
      "value" : "AuthorTO.114539"
    }],
    "name" : [{
      "text" : "QUIJANO,VICTOR J",
      "family" : "QUIJANO,VICTOR J"
    }]
  },
  {
    "resourceType" : "Practitioner",
    "id" : "approvedBy-0",
    "meta" : {
      "profile" : ["https://department-of-veterans-affairs.github.io/mhv-fhir-phr-mapping/StructureDefinition/VA.MHV.PHR.practitioner"]
    },
    "identifier" : [{
      "use" : "usual",
      "system" : "urn:oid:2.16.840.1.113883.4.349.4.989",
      "value" : "AuthorTO.114539"
    }],
    "name" : [{
      "text" : "QUIJANO,VICTOR J",
      "family" : "QUIJANO,VICTOR J"
    }]
  },
  {
    "resourceType" : "Location",
    "id" : "location-0",
    "meta" : {
      "profile" : ["https://department-of-veterans-affairs.github.io/mhv-fhir-phr-mapping/StructureDefinition/VA.MHV.PHR.location"]
    },
    "identifier" : [{
      "use" : "usual",
      "system" : "urn:oid:2.16.840.1.113883.4.349.4.989",
      "value" : "LocationTO.648"
    }],
    "name" : "PORTLAND VA MEDICAL CENTER"
  }],
  "identifier" : [{
    "use" : "usual",
    "system" : "urn:oid:2.16.840.1.113883.4.349.4.989",
    "value" : "NoteTO.53661869"
  }],
  "status" : "current",
  "type" : {
    "coding" : [{
      "system" : "http://loinc.org",
      "code" : "11488-4"
    }],
    "text" : "PODIATRY CONSULT"
  },
  "category" : [{
    "coding" : [{
      "system" : "http://hl7.org/fhir/us/core/CodeSystem/us-core-documentreference-category",
      "code" : "clinical-note"
    }]
  }],
  "subject" : {
    "reference" : "Patient/ex-MHV-patient-0"
  },
  "date" : "2018-04-06T11:14:00Z",
  "author" : [{
    "reference" : "#author-0"
  }],
  "authenticator" : {
    "extension" : [{
      "url" : "https://department-of-veterans-affairs.github.io/mhv-fhir-phr-mapping/StructureDefinition/noteAuthenticatedWhen",
      "valueDateTime" : "2018-04-06T11:15:26Z"
    }],
    "reference" : "#approvedBy-0"
  },
  "content" : [{
    "attachment" : {
      "contentType" : "text/plain",
      "data" : "",
      "title" : "PODIATRY - CONSULT REQUESTED",
      "creation" : "2018-04-06T11:14:00Z"
    }
  }],
  "context" : {
    "related" : [{
      "reference" : "#location-0"
    }]
  }
}