<?xml version="1.0" encoding="UTF-8"?>

<DocumentReference xmlns="http://hl7.org/fhir">
  <id value="3029c9a5-2a11-4ee9-9028-6d5947402575"/>
  <meta>
    <profile value="https://department-of-veterans-affairs.github.io/mhv-fhir-phr-mapping/StructureDefinition/VA.MHV.PHR.note"/>
  </meta>
  <text>
    <status value="generated"/><div xmlns="http://www.w3.org/1999/xhtml"><p class="res-header-id"><b>Generated Narrative: DocumentReference 3029c9a5-2a11-4ee9-9028-6d5947402575</b></p><a name="3029c9a5-2a11-4ee9-9028-6d5947402575"> </a><a name="hc3029c9a5-2a11-4ee9-9028-6d5947402575"> </a><a name="3029c9a5-2a11-4ee9-9028-6d5947402575-en-US"> </a><p><b>identifier</b>: <code>urn:oid:2.16.840.1.113883.4.349.4.989</code>/NoteTO.77830476 (use: usual, )</p><p><b>status</b>: Current</p><p><b>type</b>: <span title="Codes:{http://loinc.org 11506-3}">PRIMARY CARE TELEPHONE ENCOUNTER NOTE</span></p><p><b>category</b>: <span title="Codes:{http://hl7.org/fhir/us/core/CodeSystem/us-core-documentreference-category clinical-note}">Clinical Note</span></p><p><b>subject</b>: <a href="Patient-ex-MHV-patient-0.html">ROBERT MHVLISAONE  Male, DoB: 1962-08-09 ( urn:oid:2.16.840.1.113883.4.349#0 (use: usual, ))</a></p><p><b>date</b>: 2023-02-27 09:02:00+0000</p><p><b>author</b>: <a href="#hc3029c9a5-2a11-4ee9-9028-6d5947402575/author-0">Practitioner MILLER,BRIAN K</a></p><p><b>authenticator</b>: <a href="#hc3029c9a5-2a11-4ee9-9028-6d5947402575/approvedBy-0">Practitioner MILLER,BRIAN K</a></p><blockquote><p><b>content</b></p><h3>Attachments</h3><table class="grid"><tr><td style="display: none">-</td><td><b>ContentType</b></td><td><b>Data</b></td><td><b>Title</b></td><td><b>Creation</b></td></tr><tr><td style="display: none">*</td><td>text/plain</td><td>(base64 data - 1,728 base64 chars)</td><td>TLH - PORTLAND/VANCOUVER</td><td>2023-02-27 09:02:00+0000</td></tr></table></blockquote><h3>Contexts</h3><table class="grid"><tr><td style="display: none">-</td><td><b>Related</b></td></tr><tr><td style="display: none">*</td><td><a href="#hc3029c9a5-2a11-4ee9-9028-6d5947402575/location-0">Location PORTLAND VA MEDICAL CENTER</a></td></tr></table><hr/><blockquote><p class="res-header-id"><b>Generated Narrative: Practitioner  #author-0</b></p><a name="3029c9a5-2a11-4ee9-9028-6d5947402575/author-0"> </a><a name="hc3029c9a5-2a11-4ee9-9028-6d5947402575/author-0"> </a><a name="3029c9a5-2a11-4ee9-9028-6d5947402575/author-0-en-US"> </a><p><b>identifier</b>: <code>urn:oid:2.16.840.1.113883.4.349.4.989</code>/AuthorTO.196951 (use: usual, )</p><p><b>name</b>: MILLER,BRIAN K</p></blockquote><hr/><blockquote><p class="res-header-id"><b>Generated Narrative: Practitioner  #approvedBy-0</b></p><a name="3029c9a5-2a11-4ee9-9028-6d5947402575/approvedBy-0"> </a><a name="hc3029c9a5-2a11-4ee9-9028-6d5947402575/approvedBy-0"> </a><a name="3029c9a5-2a11-4ee9-9028-6d5947402575/approvedBy-0-en-US"> </a><p><b>identifier</b>: <code>urn:oid:2.16.840.1.113883.4.349.4.989</code>/AuthorTO.196951 (use: usual, )</p><p><b>name</b>: MILLER,BRIAN K</p></blockquote><hr/><blockquote><p class="res-header-id"><b>Generated Narrative: Location  #location-0</b></p><a name="3029c9a5-2a11-4ee9-9028-6d5947402575/location-0"> </a><a name="hc3029c9a5-2a11-4ee9-9028-6d5947402575/location-0"> </a><a name="3029c9a5-2a11-4ee9-9028-6d5947402575/location-0-en-US"> </a><p><b>identifier</b>: <code>urn:oid:2.16.840.1.113883.4.349.4.989</code>/LocationTO.648 (use: usual, )</p><p><b>name</b>: PORTLAND VA MEDICAL CENTER</p></blockquote></div>
  </text>
  <contained>
    <Practitioner>
      <id value="author-0"/>
      <meta>
        <profile value="https://department-of-veterans-affairs.github.io/mhv-fhir-phr-mapping/StructureDefinition/VA.MHV.PHR.practitioner"/>
      </meta>
      <identifier>
        <use value="usual"/>
        <system value="urn:oid:2.16.840.1.113883.4.349.4.989"/>
        <value value="AuthorTO.196951"/>
      </identifier>
      <name>
        <text value="MILLER,BRIAN K"/>
        <family value="MILLER,BRIAN K"/>
      </name>
    </Practitioner>
  </contained>
  <contained>
    <Practitioner>
      <id value="approvedBy-0"/>
      <meta>
        <profile value="https://department-of-veterans-affairs.github.io/mhv-fhir-phr-mapping/StructureDefinition/VA.MHV.PHR.practitioner"/>
      </meta>
      <identifier>
        <use value="usual"/>
        <system value="urn:oid:2.16.840.1.113883.4.349.4.989"/>
        <value value="AuthorTO.196951"/>
      </identifier>
      <name>
        <text value="MILLER,BRIAN K"/>
        <family value="MILLER,BRIAN K"/>
      </name>
    </Practitioner>
  </contained>
  <contained>
    <Location>
      <id value="location-0"/>
      <meta>
        <profile value="https://department-of-veterans-affairs.github.io/mhv-fhir-phr-mapping/StructureDefinition/VA.MHV.PHR.location"/>
      </meta>
      <identifier>
        <use value="usual"/>
        <system value="urn:oid:2.16.840.1.113883.4.349.4.989"/>
        <value value="LocationTO.648"/>
      </identifier>
      <name value="PORTLAND VA MEDICAL CENTER"/>
    </Location>
  </contained>
  <identifier>
    <use value="usual"/>
    <system value="urn:oid:2.16.840.1.113883.4.349.4.989"/>
    <value value="NoteTO.77830476"/>
  </identifier>
  <status value="current"/>
  <type>
    <coding>
      <system value="http://loinc.org"/>
      <code value="11506-3"/>
    </coding>
    <text value="PRIMARY CARE TELEPHONE ENCOUNTER NOTE"/>
  </type>
  <category>
    <coding>
      <system value="http://hl7.org/fhir/us/core/CodeSystem/us-core-documentreference-category"/>
      <code value="clinical-note"/>
    </coding>
  </category>
  <subject>
    <reference value="Patient/ex-MHV-patient-0"/>
  </subject>
  <date value="2023-02-27T09:02:00Z"/>
  <author>
    <reference value="#author-0"/>
  </author>
  <authenticator>
    <extension url="https://department-of-veterans-affairs.github.io/mhv-fhir-phr-mapping/StructureDefinition/noteAuthenticatedWhen">
      <valueDateTime value="2023-02-27T09:02:49Z"/>
    </extension>
    <reference value="#approvedBy-0"/>
  </authenticator>
  <content>
    <attachment>
      <contentType value="text/plain"/>
      <data value=""/>
      <title value="TLH - PORTLAND/VANCOUVER"/>
      <creation value="2023-02-27T09:02:00Z"/>
    </attachment>
  </content>
  <context>
    <related>
      <reference value="#location-0"/>
    </related>
  </context>
</DocumentReference>