<?xml version="1.0" encoding="UTF-8"?>

<DocumentReference xmlns="http://hl7.org/fhir">
  <id value="c578f7cb-8002-4ab1-8917-d1cd84b1f638"/>
  <meta>
    <profile value="https://department-of-veterans-affairs.github.io/mhv-fhir-phr-mapping/StructureDefinition/VA.MHV.PHR.note"/>
  </meta>
  <text>
    <status value="generated"/><div xmlns="http://www.w3.org/1999/xhtml"><p class="res-header-id"><b>Generated Narrative: DocumentReference c578f7cb-8002-4ab1-8917-d1cd84b1f638</b></p><a name="c578f7cb-8002-4ab1-8917-d1cd84b1f638"> </a><a name="hcc578f7cb-8002-4ab1-8917-d1cd84b1f638"> </a><a name="c578f7cb-8002-4ab1-8917-d1cd84b1f638-en-US"> </a><p><b>identifier</b>: <code>urn:oid:2.16.840.1.113883.4.349.4.989</code>/NoteTO.58196324 (use: usual, )</p><p><b>status</b>: Current</p><p><b>type</b>: <span title="Codes:{http://loinc.org 11488-4}">CONSULT</span></p><p><b>category</b>: <span title="Codes:{http://hl7.org/fhir/us/core/CodeSystem/us-core-documentreference-category clinical-note}">Clinical Note</span></p><p><b>subject</b>: <a href="Patient-ex-MHV-patient-0.html">ROBERT MHVLISAONE  Male, DoB: 1962-08-09 ( urn:oid:2.16.840.1.113883.4.349#0 (use: usual, ))</a></p><p><b>date</b>: 2019-03-16 05:48:00+0000</p><p><b>author</b>: <a href="#hcc578f7cb-8002-4ab1-8917-d1cd84b1f638/author-0">Practitioner DOUGLAS,DAVID M</a></p><p><b>authenticator</b>: <a href="#hcc578f7cb-8002-4ab1-8917-d1cd84b1f638/approvedBy-0">Practitioner DOUGLAS,DAVID M</a></p><blockquote><p><b>content</b></p><h3>Attachments</h3><table class="grid"><tr><td style="display: none">-</td><td><b>ContentType</b></td><td><b>Data</b></td><td><b>Title</b></td><td><b>Creation</b></td></tr><tr><td style="display: none">*</td><td>text/plain</td><td><code></code></td><td>CARDIOLOGY - E-CONSULT</td><td>2019-03-16 05:48:00+0000</td></tr></table></blockquote><h3>Contexts</h3><table class="grid"><tr><td style="display: none">-</td><td><b>Related</b></td></tr><tr><td style="display: none">*</td><td><a href="#hcc578f7cb-8002-4ab1-8917-d1cd84b1f638/location-0">Location PORTLAND VA MEDICAL CENTER</a></td></tr></table><hr/><blockquote><p class="res-header-id"><b>Generated Narrative: Practitioner  #author-0</b></p><a name="c578f7cb-8002-4ab1-8917-d1cd84b1f638/author-0"> </a><a name="hcc578f7cb-8002-4ab1-8917-d1cd84b1f638/author-0"> </a><a name="c578f7cb-8002-4ab1-8917-d1cd84b1f638/author-0-en-US"> </a><p><b>identifier</b>: <code>urn:oid:2.16.840.1.113883.4.349.4.989</code>/AuthorTO.2926 (use: usual, )</p><p><b>name</b>: DOUGLAS,DAVID M</p></blockquote><hr/><blockquote><p class="res-header-id"><b>Generated Narrative: Practitioner  #approvedBy-0</b></p><a name="c578f7cb-8002-4ab1-8917-d1cd84b1f638/approvedBy-0"> </a><a name="hcc578f7cb-8002-4ab1-8917-d1cd84b1f638/approvedBy-0"> </a><a name="c578f7cb-8002-4ab1-8917-d1cd84b1f638/approvedBy-0-en-US"> </a><p><b>identifier</b>: <code>urn:oid:2.16.840.1.113883.4.349.4.989</code>/AuthorTO.2926 (use: usual, )</p><p><b>name</b>: DOUGLAS,DAVID M</p></blockquote><hr/><blockquote><p class="res-header-id"><b>Generated Narrative: Location  #location-0</b></p><a name="c578f7cb-8002-4ab1-8917-d1cd84b1f638/location-0"> </a><a name="hcc578f7cb-8002-4ab1-8917-d1cd84b1f638/location-0"> </a><a name="c578f7cb-8002-4ab1-8917-d1cd84b1f638/location-0-en-US"> </a><p><b>identifier</b>: <code>urn:oid:2.16.840.1.113883.4.349.4.989</code>/LocationTO.648 (use: usual, )</p><p><b>name</b>: PORTLAND VA MEDICAL CENTER</p></blockquote></div>
  </text>
  <contained>
    <Practitioner>
      <id value="author-0"/>
      <meta>
        <profile value="https://department-of-veterans-affairs.github.io/mhv-fhir-phr-mapping/StructureDefinition/VA.MHV.PHR.practitioner"/>
      </meta>
      <identifier>
        <use value="usual"/>
        <system value="urn:oid:2.16.840.1.113883.4.349.4.989"/>
        <value value="AuthorTO.2926"/>
      </identifier>
      <name>
        <text value="DOUGLAS,DAVID M"/>
        <family value="DOUGLAS,DAVID M"/>
      </name>
    </Practitioner>
  </contained>
  <contained>
    <Practitioner>
      <id value="approvedBy-0"/>
      <meta>
        <profile value="https://department-of-veterans-affairs.github.io/mhv-fhir-phr-mapping/StructureDefinition/VA.MHV.PHR.practitioner"/>
      </meta>
      <identifier>
        <use value="usual"/>
        <system value="urn:oid:2.16.840.1.113883.4.349.4.989"/>
        <value value="AuthorTO.2926"/>
      </identifier>
      <name>
        <text value="DOUGLAS,DAVID M"/>
        <family value="DOUGLAS,DAVID M"/>
      </name>
    </Practitioner>
  </contained>
  <contained>
    <Location>
      <id value="location-0"/>
      <meta>
        <profile value="https://department-of-veterans-affairs.github.io/mhv-fhir-phr-mapping/StructureDefinition/VA.MHV.PHR.location"/>
      </meta>
      <identifier>
        <use value="usual"/>
        <system value="urn:oid:2.16.840.1.113883.4.349.4.989"/>
        <value value="LocationTO.648"/>
      </identifier>
      <name value="PORTLAND VA MEDICAL CENTER"/>
    </Location>
  </contained>
  <identifier>
    <use value="usual"/>
    <system value="urn:oid:2.16.840.1.113883.4.349.4.989"/>
    <value value="NoteTO.58196324"/>
  </identifier>
  <status value="current"/>
  <type>
    <coding>
      <system value="http://loinc.org"/>
      <code value="11488-4"/>
    </coding>
    <text value="CONSULT"/>
  </type>
  <category>
    <coding>
      <system value="http://hl7.org/fhir/us/core/CodeSystem/us-core-documentreference-category"/>
      <code value="clinical-note"/>
    </coding>
  </category>
  <subject>
    <reference value="Patient/ex-MHV-patient-0"/>
  </subject>
  <date value="2019-03-16T05:48:00Z"/>
  <author>
    <reference value="#author-0"/>
  </author>
  <authenticator>
    <extension url="https://department-of-veterans-affairs.github.io/mhv-fhir-phr-mapping/StructureDefinition/noteAuthenticatedWhen">
      <valueDateTime value="2019-03-16T06:15:25Z"/>
    </extension>
    <reference value="#approvedBy-0"/>
  </authenticator>
  <content>
    <attachment>
      <contentType value="text/plain"/>
      <data value=""/>
      <title value="CARDIOLOGY - E-CONSULT"/>
      <creation value="2019-03-16T05:48:00Z"/>
    </attachment>
  </content>
  <context>
    <related>
      <reference value="#location-0"/>
    </related>
  </context>
</DocumentReference>