{
  "resourceType" : "DocumentReference",
  "id" : "ex-MHV-note-deleted-1",
  "meta" : {
    "profile" : ["https://department-of-veterans-affairs.github.io/mhv-fhir-phr-mapping/StructureDefinition/VA.MHV.PHR.note"]
  },
  "text" : {
    "status" : "generated",
    "div" : "<div xmlns=\"http://www.w3.org/1999/xhtml\"><p class=\"res-header-id\"><b>Generated Narrative: DocumentReference ex-MHV-note-deleted-1</b></p><a name=\"ex-MHV-note-deleted-1\"> </a><a name=\"hcex-MHV-note-deleted-1\"> </a><a name=\"ex-MHV-note-deleted-1-en-US\"> </a><p><b>identifier</b>: <code>urn:oid:2.16.840.1.113883.4.349.4.989</code>/NoteTO.5\u00a0(use:\u00a0usual,\u00a0)</p><p><b>status</b>: Entered in Error</p><p><b>type</b>: <span title=\"Codes:{http://loinc.org 11506-3}\">Progress note</span></p><p><b>category</b>: <span title=\"Codes:{http://hl7.org/fhir/us/core/CodeSystem/us-core-documentreference-category clinical-note}\">Clinical Note</span></p><p><b>subject</b>: <a href=\"Patient-ex-MHV-patient-1.html\">MTPZEROTWO DAYTSHR  Male, DoB: 1000-01-01 ( urn:oid:2.16.840.1.113883.4.349#1\u00a0(use:\u00a0usual,\u00a0))</a></p><p><b>date</b>: 2022-08-05 16:56:00+0000</p><p><b>author</b>: <a href=\"#hcex-MHV-note-deleted-1/ex-MHV-practitioner-36556\">Practitioner AHMED,MARUF</a></p><p><b>authenticator</b>: <a href=\"#hcex-MHV-note-deleted-1/ex-MHV-practitioner-36556\">Practitioner AHMED,MARUF</a></p><blockquote><p><b>content</b></p><h3>Attachments</h3><table class=\"grid\"><tr><td style=\"display: none\">-</td><td><b>ContentType</b></td><td><b>Data</b></td><td><b>Title</b></td></tr><tr><td style=\"display: none\">*</td><td>text/plain</td><td><code></code></td><td>Adverse React/Allergy</td></tr></table></blockquote><h3>Contexts</h3><table class=\"grid\"><tr><td style=\"display: none\">-</td><td><b>Related</b></td></tr><tr><td style=\"display: none\">*</td><td><a href=\"#hcex-MHV-note-deleted-1/ex-MHV-location-984\">Location DAYTSHR TEST LAB</a></td></tr></table><hr/><blockquote><p class=\"res-header-id\"><b>Generated Narrative: Practitioner  #ex-MHV-practitioner-36556</b></p><a name=\"ex-MHV-note-deleted-1/ex-MHV-practitioner-36556\"> </a><a name=\"hcex-MHV-note-deleted-1/ex-MHV-practitioner-36556\"> </a><a name=\"ex-MHV-note-deleted-1/ex-MHV-practitioner-36556-en-US\"> </a><p><b>identifier</b>: <code>urn:oid:2.16.840.1.113883.4.349.4.989</code>/AuthorTO.37556\u00a0(use:\u00a0usual,\u00a0)</p><p><b>name</b>: AHMED,MARUF</p></blockquote><hr/><blockquote><p class=\"res-header-id\"><b>Generated Narrative: Location  #ex-MHV-location-984</b></p><a name=\"ex-MHV-note-deleted-1/ex-MHV-location-984\"> </a><a name=\"hcex-MHV-note-deleted-1/ex-MHV-location-984\"> </a><a name=\"ex-MHV-note-deleted-1/ex-MHV-location-984-en-US\"> </a><p><b>identifier</b>: <code>urn:oid:2.16.840.1.113883.4.349.4.989</code>/HospitalLocationTO.984\u00a0(use:\u00a0usual,\u00a0)</p><p><b>name</b>: DAYTSHR TEST LAB</p></blockquote></div>"
  },
  "contained" : [{
    "resourceType" : "Practitioner",
    "id" : "ex-MHV-practitioner-36556",
    "meta" : {
      "profile" : ["https://department-of-veterans-affairs.github.io/mhv-fhir-phr-mapping/StructureDefinition/VA.MHV.PHR.practitioner"]
    },
    "identifier" : [{
      "use" : "usual",
      "system" : "urn:oid:2.16.840.1.113883.4.349.4.989",
      "value" : "AuthorTO.37556"
    }],
    "name" : [{
      "text" : "AHMED,MARUF",
      "family" : "MARUF",
      "given" : ["AHMED"]
    }]
  },
  {
    "resourceType" : "Location",
    "id" : "ex-MHV-location-984",
    "meta" : {
      "profile" : ["https://department-of-veterans-affairs.github.io/mhv-fhir-phr-mapping/StructureDefinition/VA.MHV.PHR.location"]
    },
    "identifier" : [{
      "use" : "usual",
      "system" : "urn:oid:2.16.840.1.113883.4.349.4.989",
      "value" : "HospitalLocationTO.984"
    }],
    "name" : "DAYTSHR TEST LAB"
  }],
  "identifier" : [{
    "use" : "usual",
    "system" : "urn:oid:2.16.840.1.113883.4.349.4.989",
    "value" : "NoteTO.5"
  }],
  "status" : "entered-in-error",
  "type" : {
    "coding" : [{
      "system" : "http://loinc.org",
      "code" : "11506-3",
      "display" : "Progress note"
    }]
  },
  "category" : [{
    "coding" : [{
      "system" : "http://hl7.org/fhir/us/core/CodeSystem/us-core-documentreference-category",
      "code" : "clinical-note"
    }]
  }],
  "subject" : {
    "reference" : "Patient/ex-MHV-patient-1"
  },
  "date" : "2022-08-05T16:56:00Z",
  "author" : [{
    "reference" : "#ex-MHV-practitioner-36556"
  }],
  "authenticator" : {
    "extension" : [{
      "url" : "https://department-of-veterans-affairs.github.io/mhv-fhir-phr-mapping/StructureDefinition/noteAuthenticatedWhen",
      "valueDateTime" : "2022-08-05T16:58:46Z"
    }],
    "reference" : "#ex-MHV-practitioner-36556"
  },
  "content" : [{
    "attachment" : {
      "contentType" : "text/plain",
      "data" : "",
      "title" : "Adverse React/Allergy"
    }
  }],
  "context" : {
    "related" : [{
      "reference" : "#ex-MHV-location-984"
    }]
  }
}