{
  "resourceType" : "DocumentReference",
  "id" : "37ed1a35-5ca6-4a0b-b9a0-274ff255120d",
  "meta" : {
    "profile" : ["https://department-of-veterans-affairs.github.io/mhv-fhir-phr-mapping/StructureDefinition/VA.MHV.PHR.note"]
  },
  "text" : {
    "status" : "generated",
    "div" : "<div xmlns=\"http://www.w3.org/1999/xhtml\"><p class=\"res-header-id\"><b>Generated Narrative: DocumentReference 37ed1a35-5ca6-4a0b-b9a0-274ff255120d</b></p><a name=\"37ed1a35-5ca6-4a0b-b9a0-274ff255120d\"> </a><a name=\"hc37ed1a35-5ca6-4a0b-b9a0-274ff255120d\"> </a><a name=\"37ed1a35-5ca6-4a0b-b9a0-274ff255120d-en-US\"> </a><p><b>identifier</b>: <code>urn:oid:2.16.840.1.113883.4.349.4.989</code>/NoteTO.80529980\u00a0(use:\u00a0usual,\u00a0)</p><p><b>status</b>: Current</p><p><b>type</b>: <span title=\"Codes:{http://loinc.org 11506-3}\">OPTOMETRY NOTE</span></p><p><b>category</b>: <span title=\"Codes:{http://hl7.org/fhir/us/core/CodeSystem/us-core-documentreference-category clinical-note}\">Clinical Note</span></p><p><b>subject</b>: <a href=\"Patient-ex-MHV-patient-0.html\">ROBERT MHVLISAONE  Male, DoB: 1962-08-09 ( urn:oid:2.16.840.1.113883.4.349#0\u00a0(use:\u00a0usual,\u00a0))</a></p><p><b>date</b>: 2023-09-01 14:52:00+0000</p><p><b>author</b>: <a href=\"#hc37ed1a35-5ca6-4a0b-b9a0-274ff255120d/author-0\">Practitioner JACKSON,ANNA L</a></p><p><b>authenticator</b>: <a href=\"#hc37ed1a35-5ca6-4a0b-b9a0-274ff255120d/approvedBy-0\">Practitioner JACKSON,ANNA L</a></p><blockquote><p><b>content</b></p><h3>Attachments</h3><table class=\"grid\"><tr><td style=\"display: none\">-</td><td><b>ContentType</b></td><td><b>Data</b></td><td><b>Title</b></td><td><b>Creation</b></td></tr><tr><td style=\"display: none\">*</td><td>text/plain</td><td>(base64 data - 2,516 base64 chars)</td><td>EYE - AFTERVISIT SUMMARY SPECTACLE RX</td><td>2023-09-01 14:52:00+0000</td></tr></table></blockquote><h3>Contexts</h3><table class=\"grid\"><tr><td style=\"display: none\">-</td><td><b>Related</b></td></tr><tr><td style=\"display: none\">*</td><td><a href=\"#hc37ed1a35-5ca6-4a0b-b9a0-274ff255120d/location-0\">Location BEND, OR CBOC</a></td></tr></table><hr/><blockquote><p class=\"res-header-id\"><b>Generated Narrative: Practitioner  #author-0</b></p><a name=\"37ed1a35-5ca6-4a0b-b9a0-274ff255120d/author-0\"> </a><a name=\"hc37ed1a35-5ca6-4a0b-b9a0-274ff255120d/author-0\"> </a><a name=\"37ed1a35-5ca6-4a0b-b9a0-274ff255120d/author-0-en-US\"> </a><p><b>identifier</b>: <code>urn:oid:2.16.840.1.113883.4.349.4.989</code>/AuthorTO.273377\u00a0(use:\u00a0usual,\u00a0)</p><p><b>name</b>: JACKSON,ANNA L</p></blockquote><hr/><blockquote><p class=\"res-header-id\"><b>Generated Narrative: Practitioner  #approvedBy-0</b></p><a name=\"37ed1a35-5ca6-4a0b-b9a0-274ff255120d/approvedBy-0\"> </a><a name=\"hc37ed1a35-5ca6-4a0b-b9a0-274ff255120d/approvedBy-0\"> </a><a name=\"37ed1a35-5ca6-4a0b-b9a0-274ff255120d/approvedBy-0-en-US\"> </a><p><b>identifier</b>: <code>urn:oid:2.16.840.1.113883.4.349.4.989</code>/AuthorTO.273377\u00a0(use:\u00a0usual,\u00a0)</p><p><b>name</b>: JACKSON,ANNA L</p></blockquote><hr/><blockquote><p class=\"res-header-id\"><b>Generated Narrative: Location  #location-0</b></p><a name=\"37ed1a35-5ca6-4a0b-b9a0-274ff255120d/location-0\"> </a><a name=\"hc37ed1a35-5ca6-4a0b-b9a0-274ff255120d/location-0\"> </a><a name=\"37ed1a35-5ca6-4a0b-b9a0-274ff255120d/location-0-en-US\"> </a><p><b>identifier</b>: <code>urn:oid:2.16.840.1.113883.4.349.4.989</code>/LocationTO.648GA\u00a0(use:\u00a0usual,\u00a0)</p><p><b>name</b>: BEND, OR CBOC</p></blockquote></div>"
  },
  "contained" : [{
    "resourceType" : "Practitioner",
    "id" : "author-0",
    "meta" : {
      "profile" : ["https://department-of-veterans-affairs.github.io/mhv-fhir-phr-mapping/StructureDefinition/VA.MHV.PHR.practitioner"]
    },
    "identifier" : [{
      "use" : "usual",
      "system" : "urn:oid:2.16.840.1.113883.4.349.4.989",
      "value" : "AuthorTO.273377"
    }],
    "name" : [{
      "text" : "JACKSON,ANNA L",
      "family" : "JACKSON,ANNA L"
    }]
  },
  {
    "resourceType" : "Practitioner",
    "id" : "approvedBy-0",
    "meta" : {
      "profile" : ["https://department-of-veterans-affairs.github.io/mhv-fhir-phr-mapping/StructureDefinition/VA.MHV.PHR.practitioner"]
    },
    "identifier" : [{
      "use" : "usual",
      "system" : "urn:oid:2.16.840.1.113883.4.349.4.989",
      "value" : "AuthorTO.273377"
    }],
    "name" : [{
      "text" : "JACKSON,ANNA L",
      "family" : "JACKSON,ANNA L"
    }]
  },
  {
    "resourceType" : "Location",
    "id" : "location-0",
    "meta" : {
      "profile" : ["https://department-of-veterans-affairs.github.io/mhv-fhir-phr-mapping/StructureDefinition/VA.MHV.PHR.location"]
    },
    "identifier" : [{
      "use" : "usual",
      "system" : "urn:oid:2.16.840.1.113883.4.349.4.989",
      "value" : "LocationTO.648GA"
    }],
    "name" : "BEND, OR CBOC"
  }],
  "identifier" : [{
    "use" : "usual",
    "system" : "urn:oid:2.16.840.1.113883.4.349.4.989",
    "value" : "NoteTO.80529980"
  }],
  "status" : "current",
  "type" : {
    "coding" : [{
      "system" : "http://loinc.org",
      "code" : "11506-3"
    }],
    "text" : "OPTOMETRY NOTE"
  },
  "category" : [{
    "coding" : [{
      "system" : "http://hl7.org/fhir/us/core/CodeSystem/us-core-documentreference-category",
      "code" : "clinical-note"
    }]
  }],
  "subject" : {
    "reference" : "Patient/ex-MHV-patient-0"
  },
  "date" : "2023-09-01T14:52:00Z",
  "author" : [{
    "reference" : "#author-0"
  }],
  "authenticator" : {
    "extension" : [{
      "url" : "https://department-of-veterans-affairs.github.io/mhv-fhir-phr-mapping/StructureDefinition/noteAuthenticatedWhen",
      "valueDateTime" : "2023-09-01T14:53:33Z"
    }],
    "reference" : "#approvedBy-0"
  },
  "content" : [{
    "attachment" : {
      "contentType" : "text/plain",
      "data" : "",
      "title" : "EYE - AFTERVISIT SUMMARY SPECTACLE RX",
      "creation" : "2023-09-01T14:52:00Z"
    }
  }],
  "context" : {
    "related" : [{
      "reference" : "#location-0"
    }]
  }
}