<?xml version="1.0" encoding="UTF-8"?>

<DocumentReference xmlns="http://hl7.org/fhir">
  <id value="37ed1a35-5ca6-4a0b-b9a0-274ff255120d"/>
  <meta>
    <profile value="https://department-of-veterans-affairs.github.io/mhv-fhir-phr-mapping/StructureDefinition/VA.MHV.PHR.note"/>
  </meta>
  <text>
    <status value="generated"/><div xmlns="http://www.w3.org/1999/xhtml"><p class="res-header-id"><b>Generated Narrative: DocumentReference 37ed1a35-5ca6-4a0b-b9a0-274ff255120d</b></p><a name="37ed1a35-5ca6-4a0b-b9a0-274ff255120d"> </a><a name="hc37ed1a35-5ca6-4a0b-b9a0-274ff255120d"> </a><a name="37ed1a35-5ca6-4a0b-b9a0-274ff255120d-en-US"> </a><p><b>identifier</b>: <code>urn:oid:2.16.840.1.113883.4.349.4.989</code>/NoteTO.80529980 (use: usual, )</p><p><b>status</b>: Current</p><p><b>type</b>: <span title="Codes:{http://loinc.org 11506-3}">OPTOMETRY NOTE</span></p><p><b>category</b>: <span title="Codes:{http://hl7.org/fhir/us/core/CodeSystem/us-core-documentreference-category clinical-note}">Clinical Note</span></p><p><b>subject</b>: <a href="Patient-ex-MHV-patient-0.html">ROBERT MHVLISAONE  Male, DoB: 1962-08-09 ( urn:oid:2.16.840.1.113883.4.349#0 (use: usual, ))</a></p><p><b>date</b>: 2023-09-01 14:52:00+0000</p><p><b>author</b>: <a href="#hc37ed1a35-5ca6-4a0b-b9a0-274ff255120d/author-0">Practitioner JACKSON,ANNA L</a></p><p><b>authenticator</b>: <a href="#hc37ed1a35-5ca6-4a0b-b9a0-274ff255120d/approvedBy-0">Practitioner JACKSON,ANNA L</a></p><blockquote><p><b>content</b></p><h3>Attachments</h3><table class="grid"><tr><td style="display: none">-</td><td><b>ContentType</b></td><td><b>Data</b></td><td><b>Title</b></td><td><b>Creation</b></td></tr><tr><td style="display: none">*</td><td>text/plain</td><td>(base64 data - 2,516 base64 chars)</td><td>EYE - AFTERVISIT SUMMARY SPECTACLE RX</td><td>2023-09-01 14:52:00+0000</td></tr></table></blockquote><h3>Contexts</h3><table class="grid"><tr><td style="display: none">-</td><td><b>Related</b></td></tr><tr><td style="display: none">*</td><td><a href="#hc37ed1a35-5ca6-4a0b-b9a0-274ff255120d/location-0">Location BEND, OR CBOC</a></td></tr></table><hr/><blockquote><p class="res-header-id"><b>Generated Narrative: Practitioner  #author-0</b></p><a name="37ed1a35-5ca6-4a0b-b9a0-274ff255120d/author-0"> </a><a name="hc37ed1a35-5ca6-4a0b-b9a0-274ff255120d/author-0"> </a><a name="37ed1a35-5ca6-4a0b-b9a0-274ff255120d/author-0-en-US"> </a><p><b>identifier</b>: <code>urn:oid:2.16.840.1.113883.4.349.4.989</code>/AuthorTO.273377 (use: usual, )</p><p><b>name</b>: JACKSON,ANNA L</p></blockquote><hr/><blockquote><p class="res-header-id"><b>Generated Narrative: Practitioner  #approvedBy-0</b></p><a name="37ed1a35-5ca6-4a0b-b9a0-274ff255120d/approvedBy-0"> </a><a name="hc37ed1a35-5ca6-4a0b-b9a0-274ff255120d/approvedBy-0"> </a><a name="37ed1a35-5ca6-4a0b-b9a0-274ff255120d/approvedBy-0-en-US"> </a><p><b>identifier</b>: <code>urn:oid:2.16.840.1.113883.4.349.4.989</code>/AuthorTO.273377 (use: usual, )</p><p><b>name</b>: JACKSON,ANNA L</p></blockquote><hr/><blockquote><p class="res-header-id"><b>Generated Narrative: Location  #location-0</b></p><a name="37ed1a35-5ca6-4a0b-b9a0-274ff255120d/location-0"> </a><a name="hc37ed1a35-5ca6-4a0b-b9a0-274ff255120d/location-0"> </a><a name="37ed1a35-5ca6-4a0b-b9a0-274ff255120d/location-0-en-US"> </a><p><b>identifier</b>: <code>urn:oid:2.16.840.1.113883.4.349.4.989</code>/LocationTO.648GA (use: usual, )</p><p><b>name</b>: BEND, OR CBOC</p></blockquote></div>
  </text>
  <contained>
    <Practitioner>
      <id value="author-0"/>
      <meta>
        <profile value="https://department-of-veterans-affairs.github.io/mhv-fhir-phr-mapping/StructureDefinition/VA.MHV.PHR.practitioner"/>
      </meta>
      <identifier>
        <use value="usual"/>
        <system value="urn:oid:2.16.840.1.113883.4.349.4.989"/>
        <value value="AuthorTO.273377"/>
      </identifier>
      <name>
        <text value="JACKSON,ANNA L"/>
        <family value="JACKSON,ANNA L"/>
      </name>
    </Practitioner>
  </contained>
  <contained>
    <Practitioner>
      <id value="approvedBy-0"/>
      <meta>
        <profile value="https://department-of-veterans-affairs.github.io/mhv-fhir-phr-mapping/StructureDefinition/VA.MHV.PHR.practitioner"/>
      </meta>
      <identifier>
        <use value="usual"/>
        <system value="urn:oid:2.16.840.1.113883.4.349.4.989"/>
        <value value="AuthorTO.273377"/>
      </identifier>
      <name>
        <text value="JACKSON,ANNA L"/>
        <family value="JACKSON,ANNA L"/>
      </name>
    </Practitioner>
  </contained>
  <contained>
    <Location>
      <id value="location-0"/>
      <meta>
        <profile value="https://department-of-veterans-affairs.github.io/mhv-fhir-phr-mapping/StructureDefinition/VA.MHV.PHR.location"/>
      </meta>
      <identifier>
        <use value="usual"/>
        <system value="urn:oid:2.16.840.1.113883.4.349.4.989"/>
        <value value="LocationTO.648GA"/>
      </identifier>
      <name value="BEND, OR CBOC"/>
    </Location>
  </contained>
  <identifier>
    <use value="usual"/>
    <system value="urn:oid:2.16.840.1.113883.4.349.4.989"/>
    <value value="NoteTO.80529980"/>
  </identifier>
  <status value="current"/>
  <type>
    <coding>
      <system value="http://loinc.org"/>
      <code value="11506-3"/>
    </coding>
    <text value="OPTOMETRY NOTE"/>
  </type>
  <category>
    <coding>
      <system value="http://hl7.org/fhir/us/core/CodeSystem/us-core-documentreference-category"/>
      <code value="clinical-note"/>
    </coding>
  </category>
  <subject>
    <reference value="Patient/ex-MHV-patient-0"/>
  </subject>
  <date value="2023-09-01T14:52:00Z"/>
  <author>
    <reference value="#author-0"/>
  </author>
  <authenticator>
    <extension url="https://department-of-veterans-affairs.github.io/mhv-fhir-phr-mapping/StructureDefinition/noteAuthenticatedWhen">
      <valueDateTime value="2023-09-01T14:53:33Z"/>
    </extension>
    <reference value="#approvedBy-0"/>
  </authenticator>
  <content>
    <attachment>
      <contentType value="text/plain"/>
      <data value=""/>
      <title value="EYE - AFTERVISIT SUMMARY SPECTACLE RX"/>
      <creation value="2023-09-01T14:52:00Z"/>
    </attachment>
  </content>
  <context>
    <related>
      <reference value="#location-0"/>
    </related>
  </context>
</DocumentReference>