{
  "resourceType" : "DocumentReference",
  "id" : "ex-MHV-note-8",
  "meta" : {
    "profile" : ["https://department-of-veterans-affairs.github.io/mhv-fhir-phr-mapping/StructureDefinition/VA.MHV.PHR.note"]
  },
  "text" : {
    "status" : "generated",
    "div" : "<div xmlns=\"http://www.w3.org/1999/xhtml\"><p><b>Generated Narrative: DocumentReference </b><a name=\"ex-MHV-note-8\"> </a><a name=\"hcex-MHV-note-8\"> </a></p><div style=\"display: inline-block; background-color: #d9e0e7; padding: 6px; margin: 4px; border: 1px solid #8da1b4; border-radius: 5px; line-height: 60%\"><p style=\"margin-bottom: 0px\">ResourceDocumentReference &quot;ex-MHV-note-8&quot; </p><p style=\"margin-bottom: 0px\">Profile: <a href=\"StructureDefinition-VA.MHV.PHR.note.html\">VA MHV PHR Notes</a></p></div><p><b>identifier</b>: <code>urn:oid:2.16.840.1.113883.4.349.4.989</code>/NoteTO.43296940\u00a0(use:\u00a0usual)</p><p><b>status</b>: current</p><p><b>type</b>: C &amp; P EXAMINATION NOTE <span style=\"background: LightGoldenRodYellow; margin: 4px; border: 1px solid khaki\"> (<a href=\"https://loinc.org/\">LOINC</a>#11506-3 &quot;Progress note&quot;)</span></p><p><b>category</b>: Clinical Note <span style=\"background: LightGoldenRodYellow; margin: 4px; border: 1px solid khaki\"> (<a href=\"http://hl7.org/fhir/us/core/STU5.0.1/CodeSystem-us-core-documentreference-category.html\">US Core DocumentReferences Category Codes</a>#clinical-note)</span></p><p><b>subject</b>: <a href=\"Patient-ex-MHV-patient-1015746490.html\">Patient/ex-MHV-patient-1015746490</a> &quot; MHVZZVISNTWENTY&quot;</p><p><b>date</b>: Jan 13, 2016, 2:35:00\u202fAM</p><p><b>author</b>: <a name=\"hcex-MHV-practitioner-2926\"> </a></p><blockquote><p/><p><a name=\"ex-MHV-practitioner-2926\"> </a></p><p><a name=\"hcex-MHV-practitioner-2926\"> </a></p><p><b>identifier</b>: <code>urn:oid:2.16.840.1.113883.4.349.4.984</code>/AuthorTO.2926\u00a0(use:\u00a0usual)</p><p><b>name</b>: DOUGLAS,DAVID M</p></blockquote><p><b>authenticator</b>: <a name=\"hcex-MHV-practitioner-2926\"> </a></p><blockquote><p/><p><a name=\"ex-MHV-practitioner-2926\"> </a></p><p><a name=\"hcex-MHV-practitioner-2926\"> </a></p><p><b>identifier</b>: <code>urn:oid:2.16.840.1.113883.4.349.4.984</code>/AuthorTO.2926\u00a0(use:\u00a0usual)</p><p><b>name</b>: DOUGLAS,DAVID M</p></blockquote><blockquote><p><b>content</b></p><h3>Attachments</h3><table class=\"grid\"><tr><td style=\"display: none\">-</td><td><b>ContentType</b></td><td><b>Data</b></td><td><b>Title</b></td></tr><tr><td style=\"display: none\">*</td><td>text/plain</td><td>(base64 data - 4009 bytes)</td><td>C&amp;P GENERAL MEDICAL</td></tr></table></blockquote><h3>Contexts</h3><table class=\"grid\"><tr><td style=\"display: none\">-</td><td><b>Related</b></td></tr><tr><td style=\"display: none\">*</td><td><a name=\"hclocation-648\"> </a><blockquote><p/><p><a name=\"location-648\"> </a></p><p><a name=\"hclocation-648\"> </a></p><p><b>identifier</b>: <code>urn:oid:2.16.840.1.113883.4.349.4.989</code>/HospitalLocationTO.648\u00a0(use:\u00a0usual)</p><p><b>name</b>: PORTLAND VA MEDICAL CENTER</p></blockquote></td></tr></table><hr/><blockquote><p><b>Generated Narrative: Practitioner  #ex-MHV-practitioner-2926</b><a name=\"ex-MHV-practitioner-2926\"> </a><a name=\"hcex-MHV-practitioner-2926\"> </a></p><p><b>identifier</b>: <code>urn:oid:2.16.840.1.113883.4.349.4.984</code>/AuthorTO.2926\u00a0(use:\u00a0usual)</p><p><b>name</b>: DOUGLAS,DAVID M</p></blockquote><hr/><blockquote><p><b>Generated Narrative: Location  #location-648</b><a name=\"location-648\"> </a><a name=\"hclocation-648\"> </a></p><p><b>identifier</b>: <code>urn:oid:2.16.840.1.113883.4.349.4.989</code>/HospitalLocationTO.648\u00a0(use:\u00a0usual)</p><p><b>name</b>: PORTLAND VA MEDICAL CENTER</p></blockquote></div>"
  },
  "contained" : [{
    "resourceType" : "Practitioner",
    "id" : "ex-MHV-practitioner-2926",
    "meta" : {
      "profile" : ["https://department-of-veterans-affairs.github.io/mhv-fhir-phr-mapping/StructureDefinition/VA.MHV.PHR.practitioner"]
    },
    "identifier" : [{
      "use" : "usual",
      "system" : "urn:oid:2.16.840.1.113883.4.349.4.984",
      "value" : "AuthorTO.2926"
    }],
    "name" : [{
      "text" : "DOUGLAS,DAVID M",
      "family" : "DOUGLAS,DAVID M"
    }]
  },
  {
    "resourceType" : "Location",
    "id" : "location-648",
    "meta" : {
      "profile" : ["https://department-of-veterans-affairs.github.io/mhv-fhir-phr-mapping/StructureDefinition/VA.MHV.PHR.location"]
    },
    "identifier" : [{
      "use" : "usual",
      "system" : "urn:oid:2.16.840.1.113883.4.349.4.989",
      "value" : "HospitalLocationTO.648"
    }],
    "name" : "PORTLAND VA MEDICAL CENTER"
  }],
  "identifier" : [{
    "use" : "usual",
    "system" : "urn:oid:2.16.840.1.113883.4.349.4.989",
    "value" : "NoteTO.43296940"
  }],
  "status" : "current",
  "type" : {
    "coding" : [{
      "system" : "http://loinc.org",
      "code" : "11506-3",
      "display" : "Progress note"
    }],
    "text" : "C & P EXAMINATION NOTE"
  },
  "category" : [{
    "coding" : [{
      "system" : "http://hl7.org/fhir/us/core/CodeSystem/us-core-documentreference-category",
      "code" : "clinical-note"
    }]
  }],
  "subject" : {
    "reference" : "Patient/ex-MHV-patient-1015746490"
  },
  "date" : "2016-01-13T08:35:00Z",
  "author" : [{
    "reference" : "#ex-MHV-practitioner-2926"
  }],
  "authenticator" : {
    "extension" : [{
      "url" : "https://department-of-veterans-affairs.github.io/mhv-fhir-phr-mapping/StructureDefinition/noteAuthenticatedWhen",
      "valueDateTime" : "2016-01-13T08:37:52Z"
    }],
    "reference" : "#ex-MHV-practitioner-2926"
  },
  "content" : [{
    "attachment" : {
      "contentType" : "text/plain",
      "data" : "",
      "title" : "C&P GENERAL MEDICAL"
    }
  }],
  "context" : {
    "related" : [{
      "reference" : "#location-648"
    }]
  }
}