{
  "resourceType" : "DocumentReference",
  "id" : "25998b93-8058-4cd1-862d-6c08e20ef4dd",
  "meta" : {
    "profile" : ["https://department-of-veterans-affairs.github.io/mhv-fhir-phr-mapping/StructureDefinition/VA.MHV.PHR.note"]
  },
  "text" : {
    "status" : "generated",
    "div" : "<div xmlns=\"http://www.w3.org/1999/xhtml\"><p class=\"res-header-id\"><b>Generated Narrative: DocumentReference 25998b93-8058-4cd1-862d-6c08e20ef4dd</b></p><a name=\"25998b93-8058-4cd1-862d-6c08e20ef4dd\"> </a><a name=\"hc25998b93-8058-4cd1-862d-6c08e20ef4dd\"> </a><a name=\"25998b93-8058-4cd1-862d-6c08e20ef4dd-en-US\"> </a><p><b>identifier</b>: <code>urn:oid:2.16.840.1.113883.4.349.4.989</code>/NoteTO.15775522\u00a0(use:\u00a0usual,\u00a0)</p><p><b>status</b>: Current</p><p><b>type</b>: <span title=\"Codes:{http://loinc.org 11506-3}\">MHV DIALOG NOTE</span></p><p><b>category</b>: <span title=\"Codes:{http://hl7.org/fhir/us/core/CodeSystem/us-core-documentreference-category clinical-note}\">Clinical Note</span></p><p><b>subject</b>: <a href=\"Patient-ex-MHV-patient-0.html\">ROBERT MHVLISAONE  Male, DoB: 1962-08-09 ( urn:oid:2.16.840.1.113883.4.349#0\u00a0(use:\u00a0usual,\u00a0))</a></p><p><b>date</b>: 2008-08-12 20:39:49+0000</p><p><b>author</b>: <a href=\"#hc25998b93-8058-4cd1-862d-6c08e20ef4dd/author-0\">Practitioner DOUGLAS,DAVID M</a></p><p><b>authenticator</b>: <a href=\"#hc25998b93-8058-4cd1-862d-6c08e20ef4dd/approvedBy-0\">Practitioner DOUGLAS,DAVID M</a></p><blockquote><p><b>content</b></p><h3>Attachments</h3><table class=\"grid\"><tr><td style=\"display: none\">-</td><td><b>ContentType</b></td><td><b>Data</b></td><td><b>Title</b></td><td><b>Creation</b></td></tr><tr><td style=\"display: none\">*</td><td>text/plain</td><td>(base64 data - 1,260 base64 chars)</td><td>SECURE MESSAGING</td><td>2008-08-12 20:39:49+0000</td></tr></table></blockquote><h3>Contexts</h3><table class=\"grid\"><tr><td style=\"display: none\">-</td><td><b>Related</b></td></tr><tr><td style=\"display: none\">*</td><td><a href=\"#hc25998b93-8058-4cd1-862d-6c08e20ef4dd/location-0\">Location PORTLAND VA MEDICAL CENTER</a></td></tr></table><hr/><blockquote><p class=\"res-header-id\"><b>Generated Narrative: Practitioner  #author-0</b></p><a name=\"25998b93-8058-4cd1-862d-6c08e20ef4dd/author-0\"> </a><a name=\"hc25998b93-8058-4cd1-862d-6c08e20ef4dd/author-0\"> </a><a name=\"25998b93-8058-4cd1-862d-6c08e20ef4dd/author-0-en-US\"> </a><p><b>identifier</b>: <code>urn:oid:2.16.840.1.113883.4.349.4.989</code>/AuthorTO.2926\u00a0(use:\u00a0usual,\u00a0)</p><p><b>name</b>: DOUGLAS,DAVID M</p></blockquote><hr/><blockquote><p class=\"res-header-id\"><b>Generated Narrative: Practitioner  #approvedBy-0</b></p><a name=\"25998b93-8058-4cd1-862d-6c08e20ef4dd/approvedBy-0\"> </a><a name=\"hc25998b93-8058-4cd1-862d-6c08e20ef4dd/approvedBy-0\"> </a><a name=\"25998b93-8058-4cd1-862d-6c08e20ef4dd/approvedBy-0-en-US\"> </a><p><b>identifier</b>: <code>urn:oid:2.16.840.1.113883.4.349.4.989</code>/AuthorTO.2926\u00a0(use:\u00a0usual,\u00a0)</p><p><b>name</b>: DOUGLAS,DAVID M</p></blockquote><hr/><blockquote><p class=\"res-header-id\"><b>Generated Narrative: Location  #location-0</b></p><a name=\"25998b93-8058-4cd1-862d-6c08e20ef4dd/location-0\"> </a><a name=\"hc25998b93-8058-4cd1-862d-6c08e20ef4dd/location-0\"> </a><a name=\"25998b93-8058-4cd1-862d-6c08e20ef4dd/location-0-en-US\"> </a><p><b>identifier</b>: <code>urn:oid:2.16.840.1.113883.4.349.4.989</code>/LocationTO.648\u00a0(use:\u00a0usual,\u00a0)</p><p><b>name</b>: PORTLAND VA MEDICAL CENTER</p></blockquote></div>"
  },
  "contained" : [{
    "resourceType" : "Practitioner",
    "id" : "author-0",
    "meta" : {
      "profile" : ["https://department-of-veterans-affairs.github.io/mhv-fhir-phr-mapping/StructureDefinition/VA.MHV.PHR.practitioner"]
    },
    "identifier" : [{
      "use" : "usual",
      "system" : "urn:oid:2.16.840.1.113883.4.349.4.989",
      "value" : "AuthorTO.2926"
    }],
    "name" : [{
      "text" : "DOUGLAS,DAVID M",
      "family" : "DOUGLAS,DAVID M"
    }]
  },
  {
    "resourceType" : "Practitioner",
    "id" : "approvedBy-0",
    "meta" : {
      "profile" : ["https://department-of-veterans-affairs.github.io/mhv-fhir-phr-mapping/StructureDefinition/VA.MHV.PHR.practitioner"]
    },
    "identifier" : [{
      "use" : "usual",
      "system" : "urn:oid:2.16.840.1.113883.4.349.4.989",
      "value" : "AuthorTO.2926"
    }],
    "name" : [{
      "text" : "DOUGLAS,DAVID M",
      "family" : "DOUGLAS,DAVID M"
    }]
  },
  {
    "resourceType" : "Location",
    "id" : "location-0",
    "meta" : {
      "profile" : ["https://department-of-veterans-affairs.github.io/mhv-fhir-phr-mapping/StructureDefinition/VA.MHV.PHR.location"]
    },
    "identifier" : [{
      "use" : "usual",
      "system" : "urn:oid:2.16.840.1.113883.4.349.4.989",
      "value" : "LocationTO.648"
    }],
    "name" : "PORTLAND VA MEDICAL CENTER"
  }],
  "identifier" : [{
    "use" : "usual",
    "system" : "urn:oid:2.16.840.1.113883.4.349.4.989",
    "value" : "NoteTO.15775522"
  }],
  "status" : "current",
  "type" : {
    "coding" : [{
      "system" : "http://loinc.org",
      "code" : "11506-3"
    }],
    "text" : "MHV DIALOG NOTE"
  },
  "category" : [{
    "coding" : [{
      "system" : "http://hl7.org/fhir/us/core/CodeSystem/us-core-documentreference-category",
      "code" : "clinical-note"
    }]
  }],
  "subject" : {
    "reference" : "Patient/ex-MHV-patient-0"
  },
  "date" : "2008-08-12T20:39:49Z",
  "author" : [{
    "reference" : "#author-0"
  }],
  "authenticator" : {
    "extension" : [{
      "url" : "https://department-of-veterans-affairs.github.io/mhv-fhir-phr-mapping/StructureDefinition/noteAuthenticatedWhen",
      "valueDateTime" : "2008-08-12T13:39:51Z"
    }],
    "reference" : "#approvedBy-0"
  },
  "content" : [{
    "attachment" : {
      "contentType" : "text/plain",
      "data" : "",
      "title" : "SECURE MESSAGING",
      "creation" : "2008-08-12T20:39:49Z"
    }
  }],
  "context" : {
    "related" : [{
      "reference" : "#location-0"
    }]
  }
}