<?xml version="1.0" encoding="UTF-8"?>

<DocumentReference xmlns="http://hl7.org/fhir">
  <id value="ex-MHV-note-4"/>
  <meta>
    <profile value="https://department-of-veterans-affairs.github.io/mhv-fhir-phr-mapping/StructureDefinition/VA.MHV.PHR.note"/>
  </meta>
  <text>
    <status value="generated"/><div xmlns="http://www.w3.org/1999/xhtml"><p class="res-header-id"><b>Generated Narrative: DocumentReference ex-MHV-note-4</b></p><a name="ex-MHV-note-4"> </a><a name="hcex-MHV-note-4"> </a><a name="ex-MHV-note-4-en-US"> </a><p><b>identifier</b>: <code>urn:oid:2.16.840.1.113883.4.349.4.989</code>/NoteTO.5281877 (use: usual, )</p><p><b>status</b>: Current</p><p><b>type</b>: <span title="Codes:{http://loinc.org 18842-5}">DISCHARGE SUMMARY</span></p><p><b>category</b>: <span title="Codes:{http://hl7.org/fhir/us/core/CodeSystem/us-core-documentreference-category clinical-note}">Clinical Note</span></p><p><b>subject</b>: <a href="Patient-ex-MHV-patient-1.html">MTPZEROTWO DAYTSHR  Male, DoB: 1000-01-01 ( urn:oid:2.16.840.1.113883.4.349#1 (use: usual, ))</a></p><p><b>date</b>: 2022-08-09 13:41:23+0000</p><p><b>author</b>: <a href="#hcex-MHV-note-4/ex-MHV-practitioner-36556">Practitioner AHMED,MARUF</a></p><p><b>authenticator</b>: <a href="#hcex-MHV-note-4/ex-MHV-practitioner-36556">Practitioner AHMED,MARUF</a></p><blockquote><p><b>content</b></p><h3>Attachments</h3><table class="grid"><tr><td style="display: none">-</td><td><b>ContentType</b></td><td><b>Data</b></td><td><b>Title</b></td></tr><tr><td style="display: none">*</td><td>text/plain</td><td>(base64 data - 1,440 base64 chars)</td><td>Discharge Summary</td></tr></table></blockquote><h3>Contexts</h3><table class="grid"><tr><td style="display: none">-</td><td><b>Related</b></td></tr><tr><td style="display: none">*</td><td><a href="#hcex-MHV-note-4/ex-MHV-location-552">Location DAYTON</a></td></tr></table><hr/><blockquote><p class="res-header-id"><b>Generated Narrative: Practitioner  #ex-MHV-practitioner-36556</b></p><a name="ex-MHV-note-4/ex-MHV-practitioner-36556"> </a><a name="hcex-MHV-note-4/ex-MHV-practitioner-36556"> </a><a name="ex-MHV-note-4/ex-MHV-practitioner-36556-en-US"> </a><p><b>identifier</b>: <code>urn:oid:2.16.840.1.113883.4.349.4.989</code>/AuthorTO.37556 (use: usual, )</p><p><b>name</b>: AHMED,MARUF</p></blockquote><hr/><blockquote><p class="res-header-id"><b>Generated Narrative: Location  #ex-MHV-location-552</b></p><a name="ex-MHV-note-4/ex-MHV-location-552"> </a><a name="hcex-MHV-note-4/ex-MHV-location-552"> </a><a name="ex-MHV-note-4/ex-MHV-location-552-en-US"> </a><p><b>identifier</b>: <code>urn:oid:2.16.840.1.113883.4.349.4.989</code>/HospitalLocationTO.552 (use: usual, )</p><p><b>name</b>: DAYTON</p></blockquote></div>
  </text>
  <contained>
    <Practitioner>
      <id value="ex-MHV-practitioner-36556"/>
      <meta>
        <profile value="https://department-of-veterans-affairs.github.io/mhv-fhir-phr-mapping/StructureDefinition/VA.MHV.PHR.practitioner"/>
      </meta>
      <identifier>
        <use value="usual"/>
        <system value="urn:oid:2.16.840.1.113883.4.349.4.989"/>
        <value value="AuthorTO.37556"/>
      </identifier>
      <name>
        <text value="AHMED,MARUF"/>
        <family value="MARUF"/>
        <given value="AHMED"/>
      </name>
    </Practitioner>
  </contained>
  <contained>
    <Location>
      <id value="ex-MHV-location-552"/>
      <meta>
        <profile value="https://department-of-veterans-affairs.github.io/mhv-fhir-phr-mapping/StructureDefinition/VA.MHV.PHR.location"/>
      </meta>
      <identifier>
        <use value="usual"/>
        <system value="urn:oid:2.16.840.1.113883.4.349.4.989"/>
        <value value="HospitalLocationTO.552"/>
      </identifier>
      <name value="DAYTON"/>
    </Location>
  </contained>
  <identifier>
    <use value="usual"/>
    <system value="urn:oid:2.16.840.1.113883.4.349.4.989"/>
    <value value="NoteTO.5281877"/>
  </identifier>
  <status value="current"/>
  <type>
    <coding>
      <system value="http://loinc.org"/>
      <code value="18842-5"/>
      <display value="Discharge summary"/>
    </coding>
    <text value="DISCHARGE SUMMARY"/>
  </type>
  <category>
    <coding>
      <system value="http://hl7.org/fhir/us/core/CodeSystem/us-core-documentreference-category"/>
      <code value="clinical-note"/>
    </coding>
  </category>
  <subject>
    <reference value="Patient/ex-MHV-patient-1"/>
  </subject>
  <date value="2022-08-09T13:41:23Z"/>
  <author>
    <reference value="#ex-MHV-practitioner-36556"/>
  </author>
  <authenticator>
    <extension url="https://department-of-veterans-affairs.github.io/mhv-fhir-phr-mapping/StructureDefinition/noteAuthenticatedWhen">
      <valueDateTime value="2022-08-09T13:44:59Z"/>
    </extension>
    <reference value="#ex-MHV-practitioner-36556"/>
  </authenticator>
  <content>
    <attachment>
      <contentType value="text/plain"/>
      <data value=""/>
      <title value="Discharge Summary"/>
    </attachment>
  </content>
  <context>
    <related>
      <reference value="#ex-MHV-location-552"/>
    </related>
  </context>
</DocumentReference>