{
  "resourceType" : "DocumentReference",
  "id" : "fb0d4744-d3b4-4de1-a483-09b14ea42d10",
  "meta" : {
    "profile" : ["https://department-of-veterans-affairs.github.io/mhv-fhir-phr-mapping/StructureDefinition/VA.MHV.PHR.note"]
  },
  "text" : {
    "status" : "generated",
    "div" : "<div xmlns=\"http://www.w3.org/1999/xhtml\"><p class=\"res-header-id\"><b>Generated Narrative: DocumentReference fb0d4744-d3b4-4de1-a483-09b14ea42d10</b></p><a name=\"fb0d4744-d3b4-4de1-a483-09b14ea42d10\"> </a><a name=\"hcfb0d4744-d3b4-4de1-a483-09b14ea42d10\"> </a><a name=\"fb0d4744-d3b4-4de1-a483-09b14ea42d10-en-US\"> </a><p><b>identifier</b>: <code>urn:oid:2.16.840.1.113883.4.349.4.989</code>/NoteTO.19065448\u00a0(use:\u00a0usual,\u00a0)</p><p><b>status</b>: Current</p><p><b>type</b>: <span title=\"Codes:{http://loinc.org 11506-3}\">MHV DIALOG NOTE</span></p><p><b>category</b>: <span title=\"Codes:{http://hl7.org/fhir/us/core/CodeSystem/us-core-documentreference-category clinical-note}\">Clinical Note</span></p><p><b>subject</b>: <a href=\"Patient-ex-MHV-patient-0.html\">ROBERT MHVLISAONE  Male, DoB: 1962-08-09 ( urn:oid:2.16.840.1.113883.4.349#0\u00a0(use:\u00a0usual,\u00a0))</a></p><p><b>date</b>: 2009-10-07 15:45:56+0000</p><p><b>author</b>: <a href=\"#hcfb0d4744-d3b4-4de1-a483-09b14ea42d10/author-0\">Practitioner WOODS,SUSAN S</a></p><p><b>authenticator</b>: <a href=\"#hcfb0d4744-d3b4-4de1-a483-09b14ea42d10/approvedBy-0\">Practitioner WOODS,SUSAN S</a></p><blockquote><p><b>content</b></p><h3>Attachments</h3><table class=\"grid\"><tr><td style=\"display: none\">-</td><td><b>ContentType</b></td><td><b>Data</b></td><td><b>Title</b></td><td><b>Creation</b></td></tr><tr><td style=\"display: none\">*</td><td>text/plain</td><td>(base64 data - 1,628 base64 chars)</td><td>SECURE MESSAGING</td><td>2009-10-07 15:45:56+0000</td></tr></table></blockquote><h3>Contexts</h3><table class=\"grid\"><tr><td style=\"display: none\">-</td><td><b>Related</b></td></tr><tr><td style=\"display: none\">*</td><td><a href=\"#hcfb0d4744-d3b4-4de1-a483-09b14ea42d10/location-0\">Location PORTLAND VA MEDICAL CENTER</a></td></tr></table><hr/><blockquote><p class=\"res-header-id\"><b>Generated Narrative: Practitioner  #author-0</b></p><a name=\"fb0d4744-d3b4-4de1-a483-09b14ea42d10/author-0\"> </a><a name=\"hcfb0d4744-d3b4-4de1-a483-09b14ea42d10/author-0\"> </a><a name=\"fb0d4744-d3b4-4de1-a483-09b14ea42d10/author-0-en-US\"> </a><p><b>identifier</b>: <code>urn:oid:2.16.840.1.113883.4.349.4.989</code>/AuthorTO.14593\u00a0(use:\u00a0usual,\u00a0)</p><p><b>name</b>: WOODS,SUSAN S</p></blockquote><hr/><blockquote><p class=\"res-header-id\"><b>Generated Narrative: Practitioner  #approvedBy-0</b></p><a name=\"fb0d4744-d3b4-4de1-a483-09b14ea42d10/approvedBy-0\"> </a><a name=\"hcfb0d4744-d3b4-4de1-a483-09b14ea42d10/approvedBy-0\"> </a><a name=\"fb0d4744-d3b4-4de1-a483-09b14ea42d10/approvedBy-0-en-US\"> </a><p><b>identifier</b>: <code>urn:oid:2.16.840.1.113883.4.349.4.989</code>/AuthorTO.14593\u00a0(use:\u00a0usual,\u00a0)</p><p><b>name</b>: WOODS,SUSAN S</p></blockquote><hr/><blockquote><p class=\"res-header-id\"><b>Generated Narrative: Location  #location-0</b></p><a name=\"fb0d4744-d3b4-4de1-a483-09b14ea42d10/location-0\"> </a><a name=\"hcfb0d4744-d3b4-4de1-a483-09b14ea42d10/location-0\"> </a><a name=\"fb0d4744-d3b4-4de1-a483-09b14ea42d10/location-0-en-US\"> </a><p><b>identifier</b>: <code>urn:oid:2.16.840.1.113883.4.349.4.989</code>/LocationTO.648\u00a0(use:\u00a0usual,\u00a0)</p><p><b>name</b>: PORTLAND VA MEDICAL CENTER</p></blockquote></div>"
  },
  "contained" : [{
    "resourceType" : "Practitioner",
    "id" : "author-0",
    "meta" : {
      "profile" : ["https://department-of-veterans-affairs.github.io/mhv-fhir-phr-mapping/StructureDefinition/VA.MHV.PHR.practitioner"]
    },
    "identifier" : [{
      "use" : "usual",
      "system" : "urn:oid:2.16.840.1.113883.4.349.4.989",
      "value" : "AuthorTO.14593"
    }],
    "name" : [{
      "text" : "WOODS,SUSAN S",
      "family" : "WOODS,SUSAN S"
    }]
  },
  {
    "resourceType" : "Practitioner",
    "id" : "approvedBy-0",
    "meta" : {
      "profile" : ["https://department-of-veterans-affairs.github.io/mhv-fhir-phr-mapping/StructureDefinition/VA.MHV.PHR.practitioner"]
    },
    "identifier" : [{
      "use" : "usual",
      "system" : "urn:oid:2.16.840.1.113883.4.349.4.989",
      "value" : "AuthorTO.14593"
    }],
    "name" : [{
      "text" : "WOODS,SUSAN S",
      "family" : "WOODS,SUSAN S"
    }]
  },
  {
    "resourceType" : "Location",
    "id" : "location-0",
    "meta" : {
      "profile" : ["https://department-of-veterans-affairs.github.io/mhv-fhir-phr-mapping/StructureDefinition/VA.MHV.PHR.location"]
    },
    "identifier" : [{
      "use" : "usual",
      "system" : "urn:oid:2.16.840.1.113883.4.349.4.989",
      "value" : "LocationTO.648"
    }],
    "name" : "PORTLAND VA MEDICAL CENTER"
  }],
  "identifier" : [{
    "use" : "usual",
    "system" : "urn:oid:2.16.840.1.113883.4.349.4.989",
    "value" : "NoteTO.19065448"
  }],
  "status" : "current",
  "type" : {
    "coding" : [{
      "system" : "http://loinc.org",
      "code" : "11506-3"
    }],
    "text" : "MHV DIALOG NOTE"
  },
  "category" : [{
    "coding" : [{
      "system" : "http://hl7.org/fhir/us/core/CodeSystem/us-core-documentreference-category",
      "code" : "clinical-note"
    }]
  }],
  "subject" : {
    "reference" : "Patient/ex-MHV-patient-0"
  },
  "date" : "2009-10-07T15:45:56Z",
  "author" : [{
    "reference" : "#author-0"
  }],
  "authenticator" : {
    "extension" : [{
      "url" : "https://department-of-veterans-affairs.github.io/mhv-fhir-phr-mapping/StructureDefinition/noteAuthenticatedWhen",
      "valueDateTime" : "2009-10-07T08:45:59Z"
    }],
    "reference" : "#approvedBy-0"
  },
  "content" : [{
    "attachment" : {
      "contentType" : "text/plain",
      "data" : "",
      "title" : "SECURE MESSAGING",
      "creation" : "2009-10-07T15:45:56Z"
    }
  }],
  "context" : {
    "related" : [{
      "reference" : "#location-0"
    }]
  }
}