{
  "resourceType" : "DocumentReference",
  "id" : "545e22f7-b716-48b8-8d48-916433c2b41b",
  "meta" : {
    "profile" : ["https://department-of-veterans-affairs.github.io/mhv-fhir-phr-mapping/StructureDefinition/VA.MHV.PHR.note"]
  },
  "text" : {
    "status" : "generated",
    "div" : "<div xmlns=\"http://www.w3.org/1999/xhtml\"><p class=\"res-header-id\"><b>Generated Narrative: DocumentReference 545e22f7-b716-48b8-8d48-916433c2b41b</b></p><a name=\"545e22f7-b716-48b8-8d48-916433c2b41b\"> </a><a name=\"hc545e22f7-b716-48b8-8d48-916433c2b41b\"> </a><a name=\"545e22f7-b716-48b8-8d48-916433c2b41b-en-US\"> </a><p><b>identifier</b>: <code>urn:oid:2.16.840.1.113883.4.349.4.989</code>/NoteTO.77713416\u00a0(use:\u00a0usual,\u00a0)</p><p><b>status</b>: Current</p><p><b>type</b>: <span title=\"Codes:{http://loinc.org 11506-3}\">MHV DIALOG NOTE</span></p><p><b>category</b>: <span title=\"Codes:{http://hl7.org/fhir/us/core/CodeSystem/us-core-documentreference-category clinical-note}\">Clinical Note</span></p><p><b>subject</b>: <a href=\"Patient-ex-MHV-patient-0.html\">ROBERT MHVLISAONE  Male, DoB: 1962-08-09 ( urn:oid:2.16.840.1.113883.4.349#0\u00a0(use:\u00a0usual,\u00a0))</a></p><p><b>date</b>: 2023-02-16 13:26:00+0000</p><p><b>author</b>: <a href=\"#hc545e22f7-b716-48b8-8d48-916433c2b41b/author-0\">Practitioner SONNEMAN,SUSAN L</a></p><p><b>authenticator</b>: <a href=\"#hc545e22f7-b716-48b8-8d48-916433c2b41b/approvedBy-0\">Practitioner SONNEMAN,SUSAN L</a></p><blockquote><p><b>content</b></p><h3>Attachments</h3><table class=\"grid\"><tr><td style=\"display: none\">-</td><td><b>ContentType</b></td><td><b>Data</b></td><td><b>Title</b></td><td><b>Creation</b></td></tr><tr><td style=\"display: none\">*</td><td>text/plain</td><td><code></code></td><td>SECURE MESSAGING</td><td>2023-02-16 13:26:00+0000</td></tr></table></blockquote><h3>Contexts</h3><table class=\"grid\"><tr><td style=\"display: none\">-</td><td><b>Related</b></td></tr><tr><td style=\"display: none\">*</td><td><a href=\"#hc545e22f7-b716-48b8-8d48-916433c2b41b/location-0\">Location PORTLAND VA MEDICAL CENTER</a></td></tr></table><hr/><blockquote><p class=\"res-header-id\"><b>Generated Narrative: Practitioner  #author-0</b></p><a name=\"545e22f7-b716-48b8-8d48-916433c2b41b/author-0\"> </a><a name=\"hc545e22f7-b716-48b8-8d48-916433c2b41b/author-0\"> </a><a name=\"545e22f7-b716-48b8-8d48-916433c2b41b/author-0-en-US\"> </a><p><b>identifier</b>: <code>urn:oid:2.16.840.1.113883.4.349.4.989</code>/AuthorTO.13582\u00a0(use:\u00a0usual,\u00a0)</p><p><b>name</b>: SONNEMAN,SUSAN L</p></blockquote><hr/><blockquote><p class=\"res-header-id\"><b>Generated Narrative: Practitioner  #approvedBy-0</b></p><a name=\"545e22f7-b716-48b8-8d48-916433c2b41b/approvedBy-0\"> </a><a name=\"hc545e22f7-b716-48b8-8d48-916433c2b41b/approvedBy-0\"> </a><a name=\"545e22f7-b716-48b8-8d48-916433c2b41b/approvedBy-0-en-US\"> </a><p><b>identifier</b>: <code>urn:oid:2.16.840.1.113883.4.349.4.989</code>/AuthorTO.13582\u00a0(use:\u00a0usual,\u00a0)</p><p><b>name</b>: SONNEMAN,SUSAN L</p></blockquote><hr/><blockquote><p class=\"res-header-id\"><b>Generated Narrative: Location  #location-0</b></p><a name=\"545e22f7-b716-48b8-8d48-916433c2b41b/location-0\"> </a><a name=\"hc545e22f7-b716-48b8-8d48-916433c2b41b/location-0\"> </a><a name=\"545e22f7-b716-48b8-8d48-916433c2b41b/location-0-en-US\"> </a><p><b>identifier</b>: <code>urn:oid:2.16.840.1.113883.4.349.4.989</code>/LocationTO.648\u00a0(use:\u00a0usual,\u00a0)</p><p><b>name</b>: PORTLAND VA MEDICAL CENTER</p></blockquote></div>"
  },
  "contained" : [{
    "resourceType" : "Practitioner",
    "id" : "author-0",
    "meta" : {
      "profile" : ["https://department-of-veterans-affairs.github.io/mhv-fhir-phr-mapping/StructureDefinition/VA.MHV.PHR.practitioner"]
    },
    "identifier" : [{
      "use" : "usual",
      "system" : "urn:oid:2.16.840.1.113883.4.349.4.989",
      "value" : "AuthorTO.13582"
    }],
    "name" : [{
      "text" : "SONNEMAN,SUSAN L",
      "family" : "SONNEMAN,SUSAN L"
    }]
  },
  {
    "resourceType" : "Practitioner",
    "id" : "approvedBy-0",
    "meta" : {
      "profile" : ["https://department-of-veterans-affairs.github.io/mhv-fhir-phr-mapping/StructureDefinition/VA.MHV.PHR.practitioner"]
    },
    "identifier" : [{
      "use" : "usual",
      "system" : "urn:oid:2.16.840.1.113883.4.349.4.989",
      "value" : "AuthorTO.13582"
    }],
    "name" : [{
      "text" : "SONNEMAN,SUSAN L",
      "family" : "SONNEMAN,SUSAN L"
    }]
  },
  {
    "resourceType" : "Location",
    "id" : "location-0",
    "meta" : {
      "profile" : ["https://department-of-veterans-affairs.github.io/mhv-fhir-phr-mapping/StructureDefinition/VA.MHV.PHR.location"]
    },
    "identifier" : [{
      "use" : "usual",
      "system" : "urn:oid:2.16.840.1.113883.4.349.4.989",
      "value" : "LocationTO.648"
    }],
    "name" : "PORTLAND VA MEDICAL CENTER"
  }],
  "identifier" : [{
    "use" : "usual",
    "system" : "urn:oid:2.16.840.1.113883.4.349.4.989",
    "value" : "NoteTO.77713416"
  }],
  "status" : "current",
  "type" : {
    "coding" : [{
      "system" : "http://loinc.org",
      "code" : "11506-3"
    }],
    "text" : "MHV DIALOG NOTE"
  },
  "category" : [{
    "coding" : [{
      "system" : "http://hl7.org/fhir/us/core/CodeSystem/us-core-documentreference-category",
      "code" : "clinical-note"
    }]
  }],
  "subject" : {
    "reference" : "Patient/ex-MHV-patient-0"
  },
  "date" : "2023-02-16T13:26:00Z",
  "author" : [{
    "reference" : "#author-0"
  }],
  "authenticator" : {
    "extension" : [{
      "url" : "https://department-of-veterans-affairs.github.io/mhv-fhir-phr-mapping/StructureDefinition/noteAuthenticatedWhen",
      "valueDateTime" : "2023-02-16T10:26:55Z"
    }],
    "reference" : "#approvedBy-0"
  },
  "content" : [{
    "attachment" : {
      "contentType" : "text/plain",
      "data" : "",
      "title" : "SECURE MESSAGING",
      "creation" : "2023-02-16T13:26:00Z"
    }
  }],
  "context" : {
    "related" : [{
      "reference" : "#location-0"
    }]
  }
}