{
  "resourceType" : "DocumentReference",
  "id" : "0d6b882f-34e2-4e88-8ef4-29de9c3cf102",
  "meta" : {
    "profile" : ["https://department-of-veterans-affairs.github.io/mhv-fhir-phr-mapping/StructureDefinition/VA.MHV.PHR.note"]
  },
  "text" : {
    "status" : "generated",
    "div" : "<div xmlns=\"http://www.w3.org/1999/xhtml\"><p><b>Generated Narrative: DocumentReference</b><a name=\"0d6b882f-34e2-4e88-8ef4-29de9c3cf102\"> </a><a name=\"hc0d6b882f-34e2-4e88-8ef4-29de9c3cf102\"> </a></p><div style=\"display: inline-block; background-color: #d9e0e7; padding: 6px; margin: 4px; border: 1px solid #8da1b4; border-radius: 5px; line-height: 60%\"><p style=\"margin-bottom: 0px\">Resource DocumentReference &quot;0d6b882f-34e2-4e88-8ef4-29de9c3cf102&quot; </p><p style=\"margin-bottom: 0px\">Profile: <a href=\"StructureDefinition-VA.MHV.PHR.note.html\">VA MHV PHR Notes</a></p></div><p><b>identifier</b>: <code>urn:oid:2.16.840.1.113883.4.349.4.989</code>/NoteTO.54705220\u00a0(use:\u00a0USUAL)</p><p><b>status</b>: current</p><p><b>type</b>: WOUND CARE CONSULT <span style=\"background: LightGoldenRodYellow; margin: 4px; border: 1px solid khaki\"> (<a href=\"https://loinc.org/\">LOINC</a>#11488-4)</span></p><p><b>category</b>: Clinical Note <span style=\"background: LightGoldenRodYellow; margin: 4px; border: 1px solid khaki\"> (<a href=\"http://hl7.org/fhir/us/core/STU5.0.1/CodeSystem-us-core-documentreference-category.html\">US Core DocumentReferences Category Codes</a>#clinical-note)</span></p><p><b>subject</b>: <a href=\"Patient-ex-MHV-patient-0.html\">Patient/ex-MHV-patient-0</a> &quot; MHVLISAONE&quot;</p><p><b>date</b>: Jun 25, 2018, 4:35:00\u202fAM</p><p><b>author</b>: <a name=\"hcauthor-0\"> </a></p><blockquote><p/><p><a name=\"author-0\"> </a></p><p><a name=\"hcauthor-0\"> </a></p><p><b>identifier</b>: <code>urn:oid:2.16.840.1.113883.4.349.4.989</code>/AuthorTO.2926\u00a0(use:\u00a0USUAL)</p><p><b>name</b>: DOUGLAS,DAVID M</p></blockquote><p><b>authenticator</b>: <a name=\"hcapprovedBy-0\"> </a></p><blockquote><p/><p><a name=\"approvedBy-0\"> </a></p><p><a name=\"hcapprovedBy-0\"> </a></p><p><b>identifier</b>: <code>urn:oid:2.16.840.1.113883.4.349.4.989</code>/AuthorTO.2926\u00a0(use:\u00a0USUAL)</p><p><b>name</b>: DOUGLAS,DAVID M</p></blockquote><blockquote><p><b>content</b></p><h3>Attachments</h3><table class=\"grid\"><tr><td style=\"display: none\">-</td><td><b>ContentType</b></td><td><b>Data</b></td><td><b>Title</b></td><td><b>Creation</b></td></tr><tr><td style=\"display: none\">*</td><td>text/plain</td><td>(base64 data - 543 bytes)</td><td>WOUND - E-CONSULT</td><td>2018-06-25 09:35:00+0000</td></tr></table></blockquote><h3>Contexts</h3><table class=\"grid\"><tr><td style=\"display: none\">-</td><td><b>Related</b></td></tr><tr><td style=\"display: none\">*</td><td><a name=\"hclocation-0\"> </a><blockquote><p/><p><a name=\"location-0\"> </a></p><p><a name=\"hclocation-0\"> </a></p><p><b>identifier</b>: <code>urn:oid:2.16.840.1.113883.4.349.4.989</code>/LocationTO.648\u00a0(use:\u00a0USUAL)</p><p><b>name</b>: PORTLAND VA MEDICAL CENTER</p></blockquote></td></tr></table><hr/><blockquote><p><b>Generated Narrative: Practitioner #author-0</b><a name=\"author-0\"> </a><a name=\"hcauthor-0\"> </a></p><p><b>identifier</b>: <code>urn:oid:2.16.840.1.113883.4.349.4.989</code>/AuthorTO.2926\u00a0(use:\u00a0USUAL)</p><p><b>name</b>: DOUGLAS,DAVID M</p></blockquote><hr/><blockquote><p><b>Generated Narrative: Practitioner #approvedBy-0</b><a name=\"approvedBy-0\"> </a><a name=\"hcapprovedBy-0\"> </a></p><p><b>identifier</b>: <code>urn:oid:2.16.840.1.113883.4.349.4.989</code>/AuthorTO.2926\u00a0(use:\u00a0USUAL)</p><p><b>name</b>: DOUGLAS,DAVID M</p></blockquote><hr/><blockquote><p><b>Generated Narrative: Location #location-0</b><a name=\"location-0\"> </a><a name=\"hclocation-0\"> </a></p><p><b>identifier</b>: <code>urn:oid:2.16.840.1.113883.4.349.4.989</code>/LocationTO.648\u00a0(use:\u00a0USUAL)</p><p><b>name</b>: PORTLAND VA MEDICAL CENTER</p></blockquote></div>"
  },
  "contained" : [{
    "resourceType" : "Practitioner",
    "id" : "author-0",
    "meta" : {
      "profile" : ["https://department-of-veterans-affairs.github.io/mhv-fhir-phr-mapping/StructureDefinition/VA.MHV.PHR.practitioner"]
    },
    "identifier" : [{
      "use" : "usual",
      "system" : "urn:oid:2.16.840.1.113883.4.349.4.989",
      "value" : "AuthorTO.2926"
    }],
    "name" : [{
      "text" : "DOUGLAS,DAVID M",
      "family" : "DOUGLAS,DAVID M"
    }]
  },
  {
    "resourceType" : "Practitioner",
    "id" : "approvedBy-0",
    "meta" : {
      "profile" : ["https://department-of-veterans-affairs.github.io/mhv-fhir-phr-mapping/StructureDefinition/VA.MHV.PHR.practitioner"]
    },
    "identifier" : [{
      "use" : "usual",
      "system" : "urn:oid:2.16.840.1.113883.4.349.4.989",
      "value" : "AuthorTO.2926"
    }],
    "name" : [{
      "text" : "DOUGLAS,DAVID M",
      "family" : "DOUGLAS,DAVID M"
    }]
  },
  {
    "resourceType" : "Location",
    "id" : "location-0",
    "meta" : {
      "profile" : ["https://department-of-veterans-affairs.github.io/mhv-fhir-phr-mapping/StructureDefinition/VA.MHV.PHR.location"]
    },
    "identifier" : [{
      "use" : "usual",
      "system" : "urn:oid:2.16.840.1.113883.4.349.4.989",
      "value" : "LocationTO.648"
    }],
    "name" : "PORTLAND VA MEDICAL CENTER"
  }],
  "identifier" : [{
    "use" : "usual",
    "system" : "urn:oid:2.16.840.1.113883.4.349.4.989",
    "value" : "NoteTO.54705220"
  }],
  "status" : "current",
  "type" : {
    "coding" : [{
      "system" : "http://loinc.org",
      "code" : "11488-4"
    }],
    "text" : "WOUND CARE CONSULT"
  },
  "category" : [{
    "coding" : [{
      "system" : "http://hl7.org/fhir/us/core/CodeSystem/us-core-documentreference-category",
      "code" : "clinical-note"
    }]
  }],
  "subject" : {
    "reference" : "Patient/ex-MHV-patient-0"
  },
  "date" : "2018-06-25T09:35:00Z",
  "author" : [{
    "reference" : "#author-0"
  }],
  "authenticator" : {
    "extension" : [{
      "url" : "https://department-of-veterans-affairs.github.io/mhv-fhir-phr-mapping/StructureDefinition/noteAuthenticatedWhen",
      "valueDateTime" : "2018-06-25T09:36:02Z"
    }],
    "reference" : "#approvedBy-0"
  },
  "content" : [{
    "attachment" : {
      "contentType" : "text/plain",
      "data" : "",
      "title" : "WOUND - E-CONSULT",
      "creation" : "2018-06-25T09:35:00Z"
    }
  }],
  "context" : {
    "related" : [{
      "reference" : "#location-0"
    }]
  }
}