{
  "resourceType" : "DocumentReference",
  "id" : "b71ceba1-a4b0-4d09-8a00-2c76568267a9",
  "meta" : {
    "profile" : ["https://department-of-veterans-affairs.github.io/mhv-fhir-phr-mapping/StructureDefinition/VA.MHV.PHR.note"]
  },
  "text" : {
    "status" : "generated",
    "div" : "<div xmlns=\"http://www.w3.org/1999/xhtml\"><p class=\"res-header-id\"><b>Generated Narrative: DocumentReference b71ceba1-a4b0-4d09-8a00-2c76568267a9</b></p><a name=\"b71ceba1-a4b0-4d09-8a00-2c76568267a9\"> </a><a name=\"hcb71ceba1-a4b0-4d09-8a00-2c76568267a9\"> </a><a name=\"b71ceba1-a4b0-4d09-8a00-2c76568267a9-en-US\"> </a><p><b>identifier</b>: <code>urn:oid:2.16.840.1.113883.4.349.4.989</code>/NoteTO.79686701\u00a0(use:\u00a0usual,\u00a0)</p><p><b>status</b>: Current</p><p><b>type</b>: <span title=\"Codes:{http://loinc.org 11506-3}\">EDUCATION NOTE</span></p><p><b>category</b>: <span title=\"Codes:{http://hl7.org/fhir/us/core/CodeSystem/us-core-documentreference-category clinical-note}\">Clinical Note</span></p><p><b>subject</b>: <a href=\"Patient-ex-MHV-patient-0.html\">ROBERT MHVLISAONE  Male, DoB: 1962-08-09 ( urn:oid:2.16.840.1.113883.4.349#0\u00a0(use:\u00a0usual,\u00a0))</a></p><p><b>date</b>: 2023-07-06 10:08:36+0000</p><p><b>author</b>: <a href=\"#hcb71ceba1-a4b0-4d09-8a00-2c76568267a9/author-0\">Practitioner LENZI,AMIE M</a></p><blockquote><p><b>content</b></p><h3>Attachments</h3><table class=\"grid\"><tr><td style=\"display: none\">-</td><td><b>ContentType</b></td><td><b>Data</b></td><td><b>Title</b></td><td><b>Creation</b></td></tr><tr><td style=\"display: none\">*</td><td>text/plain</td><td>(base64 data - 1,796 base64 chars)</td><td>AVS STUB NOTE</td><td>2023-07-06 10:08:36+0000</td></tr></table></blockquote><h3>Contexts</h3><table class=\"grid\"><tr><td style=\"display: none\">-</td><td><b>Related</b></td></tr><tr><td style=\"display: none\">*</td><td><a href=\"#hcb71ceba1-a4b0-4d09-8a00-2c76568267a9/location-0\">Location PORTLAND VA MEDICAL CENTER</a></td></tr></table><hr/><blockquote><p class=\"res-header-id\"><b>Generated Narrative: Practitioner  #author-0</b></p><a name=\"b71ceba1-a4b0-4d09-8a00-2c76568267a9/author-0\"> </a><a name=\"hcb71ceba1-a4b0-4d09-8a00-2c76568267a9/author-0\"> </a><a name=\"b71ceba1-a4b0-4d09-8a00-2c76568267a9/author-0-en-US\"> </a><p><b>identifier</b>: <code>urn:oid:2.16.840.1.113883.4.349.4.989</code>/AuthorTO.11786\u00a0(use:\u00a0usual,\u00a0)</p><p><b>name</b>: LENZI,AMIE M</p></blockquote><hr/><blockquote><p class=\"res-header-id\"><b>Generated Narrative: Location  #location-0</b></p><a name=\"b71ceba1-a4b0-4d09-8a00-2c76568267a9/location-0\"> </a><a name=\"hcb71ceba1-a4b0-4d09-8a00-2c76568267a9/location-0\"> </a><a name=\"b71ceba1-a4b0-4d09-8a00-2c76568267a9/location-0-en-US\"> </a><p><b>identifier</b>: <code>urn:oid:2.16.840.1.113883.4.349.4.989</code>/LocationTO.648\u00a0(use:\u00a0usual,\u00a0)</p><p><b>name</b>: PORTLAND VA MEDICAL CENTER</p></blockquote></div>"
  },
  "contained" : [{
    "resourceType" : "Practitioner",
    "id" : "author-0",
    "meta" : {
      "profile" : ["https://department-of-veterans-affairs.github.io/mhv-fhir-phr-mapping/StructureDefinition/VA.MHV.PHR.practitioner"]
    },
    "identifier" : [{
      "use" : "usual",
      "system" : "urn:oid:2.16.840.1.113883.4.349.4.989",
      "value" : "AuthorTO.11786"
    }],
    "name" : [{
      "text" : "LENZI,AMIE M",
      "family" : "LENZI,AMIE M"
    }]
  },
  {
    "resourceType" : "Location",
    "id" : "location-0",
    "meta" : {
      "profile" : ["https://department-of-veterans-affairs.github.io/mhv-fhir-phr-mapping/StructureDefinition/VA.MHV.PHR.location"]
    },
    "identifier" : [{
      "use" : "usual",
      "system" : "urn:oid:2.16.840.1.113883.4.349.4.989",
      "value" : "LocationTO.648"
    }],
    "name" : "PORTLAND VA MEDICAL CENTER"
  }],
  "identifier" : [{
    "use" : "usual",
    "system" : "urn:oid:2.16.840.1.113883.4.349.4.989",
    "value" : "NoteTO.79686701"
  }],
  "status" : "current",
  "type" : {
    "coding" : [{
      "system" : "http://loinc.org",
      "code" : "11506-3"
    }],
    "text" : "EDUCATION NOTE"
  },
  "category" : [{
    "coding" : [{
      "system" : "http://hl7.org/fhir/us/core/CodeSystem/us-core-documentreference-category",
      "code" : "clinical-note"
    }]
  }],
  "subject" : {
    "reference" : "Patient/ex-MHV-patient-0"
  },
  "date" : "2023-07-06T10:08:36Z",
  "author" : [{
    "reference" : "#author-0"
  }],
  "content" : [{
    "attachment" : {
      "contentType" : "text/plain",
      "data" : "",
      "title" : "AVS STUB NOTE",
      "creation" : "2023-07-06T10:08:36Z"
    }
  }],
  "context" : {
    "related" : [{
      "reference" : "#location-0"
    }]
  }
}