<?xml version="1.0" encoding="UTF-8"?>

<DocumentReference xmlns="http://hl7.org/fhir">
  <id value="6f427bef-053a-4b68-b270-fc55f55bfcc6"/>
  <meta>
    <profile value="https://department-of-veterans-affairs.github.io/mhv-fhir-phr-mapping/StructureDefinition/VA.MHV.PHR.note"/>
  </meta>
  <text>
    <status value="generated"/><div xmlns="http://www.w3.org/1999/xhtml"><p><b>Generated Narrative: DocumentReference</b><a name="6f427bef-053a-4b68-b270-fc55f55bfcc6"> </a></p><div style="display: inline-block; background-color: #d9e0e7; padding: 6px; margin: 4px; border: 1px solid #8da1b4; border-radius: 5px; line-height: 60%"><p style="margin-bottom: 0px">Resource DocumentReference &quot;6f427bef-053a-4b68-b270-fc55f55bfcc6&quot; </p><p style="margin-bottom: 0px">Profile: <a href="StructureDefinition-VA.MHV.PHR.note.html">VA MHV PHR Notes</a></p></div><p><b>identifier</b>: id: NoteTO.76750716 (use: USUAL)</p><p><b>status</b>: current</p><p><b>type</b>: MENTAL HEALTH SECURE MESSAGING <span style="background: LightGoldenRodYellow; margin: 4px; border: 1px solid khaki"> (<a href="https://loinc.org/">LOINC</a>#11506-3)</span></p><p><b>category</b>: Clinical Note <span style="background: LightGoldenRodYellow; margin: 4px; border: 1px solid khaki"> (<a href="http://hl7.org/fhir/us/core/STU5.0.1/CodeSystem-us-core-documentreference-category.html">US Core DocumentReferences Category Codes</a>#clinical-note)</span></p><p><b>subject</b>: <a href="Patient-ex-MHV-patient-0.html">Patient/ex-MHV-patient-0</a> &quot; MHVLISAONE&quot;</p><p><b>date</b>: Dec 7, 2022, 5:21:00 AM</p><p><b>author</b>: <a name="author-0"> </a></p><blockquote><p/><p><a name="author-0"> </a></p><p><b>identifier</b>: id: AuthorTO.347662 (use: USUAL)</p><p><b>name</b>: AMSDEN,NIKI D</p></blockquote><p><b>authenticator</b>: <a name="approvedBy-0"> </a></p><blockquote><p/><p><a name="approvedBy-0"> </a></p><p><b>identifier</b>: id: AuthorTO.347662 (use: USUAL)</p><p><b>name</b>: AMSDEN,NIKI D</p></blockquote><blockquote><p><b>content</b></p><h3>Attachments</h3><table class="grid"><tr><td style="display: none">-</td><td><b>ContentType</b></td><td><b>Data</b></td><td><b>Title</b></td><td><b>Creation</b></td></tr><tr><td style="display: none">*</td><td>text/plain</td><td>(base64 data - 993 bytes)</td><td>MENTAL HEALTH SECURE MESSAGING</td><td>2022-12-07 11:21:00+0000</td></tr></table></blockquote><h3>Contexts</h3><table class="grid"><tr><td style="display: none">-</td><td><b>Related</b></td></tr><tr><td style="display: none">*</td><td><a name="location-0"> </a><blockquote><p/><p><a name="location-0"> </a></p><p><b>identifier</b>: id: LocationTO.648 (use: USUAL)</p><p><b>name</b>: PORTLAND VA MEDICAL CENTER</p></blockquote></td></tr></table><hr/><blockquote><p><b>Generated Narrative: Practitioner #author-0</b><a name="author-0"> </a></p><p><b>identifier</b>: id: AuthorTO.347662 (use: USUAL)</p><p><b>name</b>: AMSDEN,NIKI D</p></blockquote><hr/><blockquote><p><b>Generated Narrative: Practitioner #approvedBy-0</b><a name="approvedBy-0"> </a></p><p><b>identifier</b>: id: AuthorTO.347662 (use: USUAL)</p><p><b>name</b>: AMSDEN,NIKI D</p></blockquote><hr/><blockquote><p><b>Generated Narrative: Location #location-0</b><a name="location-0"> </a></p><p><b>identifier</b>: id: LocationTO.648 (use: USUAL)</p><p><b>name</b>: PORTLAND VA MEDICAL CENTER</p></blockquote></div>
  </text>
  <contained>
    <Practitioner>
      <id value="author-0"/>
      <meta>
        <profile value="https://department-of-veterans-affairs.github.io/mhv-fhir-phr-mapping/StructureDefinition/VA.MHV.PHR.practitioner"/>
      </meta>
      <identifier>
        <use value="usual"/>
        <system value="urn:oid:2.16.840.1.113883.4.349.4.989"/>
        <value value="AuthorTO.347662"/>
      </identifier>
      <name>
        <text value="AMSDEN,NIKI D"/>
        <family value="AMSDEN,NIKI D"/>
      </name>
    </Practitioner>
  </contained>
  <contained>
    <Practitioner>
      <id value="approvedBy-0"/>
      <meta>
        <profile value="https://department-of-veterans-affairs.github.io/mhv-fhir-phr-mapping/StructureDefinition/VA.MHV.PHR.practitioner"/>
      </meta>
      <identifier>
        <use value="usual"/>
        <system value="urn:oid:2.16.840.1.113883.4.349.4.989"/>
        <value value="AuthorTO.347662"/>
      </identifier>
      <name>
        <text value="AMSDEN,NIKI D"/>
        <family value="AMSDEN,NIKI D"/>
      </name>
    </Practitioner>
  </contained>
  <contained>
    <Location>
      <id value="location-0"/>
      <meta>
        <profile value="https://department-of-veterans-affairs.github.io/mhv-fhir-phr-mapping/StructureDefinition/VA.MHV.PHR.location"/>
      </meta>
      <identifier>
        <use value="usual"/>
        <system value="urn:oid:2.16.840.1.113883.4.349.4.989"/>
        <value value="LocationTO.648"/>
      </identifier>
      <name value="PORTLAND VA MEDICAL CENTER"/>
    </Location>
  </contained>
  <identifier>
    <use value="usual"/>
    <system value="urn:oid:2.16.840.1.113883.4.349.4.989"/>
    <value value="NoteTO.76750716"/>
  </identifier>
  <status value="current"/>
  <type>
    <coding>
      <system value="http://loinc.org"/>
      <code value="11506-3"/>
    </coding>
    <text value="MENTAL HEALTH SECURE MESSAGING"/>
  </type>
  <category>
    <coding>
      <system value="http://hl7.org/fhir/us/core/CodeSystem/us-core-documentreference-category"/>
      <code value="clinical-note"/>
    </coding>
  </category>
  <subject>
    <reference value="Patient/ex-MHV-patient-0"/>
  </subject>
  <date value="2022-12-07T11:21:00Z"/>
  <author>
    <reference value="#author-0"/>
  </author>
  <authenticator>
    <extension url="https://department-of-veterans-affairs.github.io/mhv-fhir-phr-mapping/StructureDefinition/noteAuthenticatedWhen">
      <valueDateTime value="2022-12-07T08:21:11Z"/>
    </extension>
    <reference value="#approvedBy-0"/>
  </authenticator>
  <content>
    <attachment>
      <contentType value="text/plain"/>
      <data value=""/>
      <title value="MENTAL HEALTH SECURE MESSAGING"/>
      <creation value="2022-12-07T11:21:00Z"/>
    </attachment>
  </content>
  <context>
    <related>
      <reference value="#location-0"/>
    </related>
  </context>
</DocumentReference>